timestamp,accelerometer_x,accelerometer_y,accelerometer_z,gyroscope_x,gyroscope_y,gyroscope_z,compass
18155904.8073853,3.138852119445801,-0.2088267058134079,0.0006940311868675053,9.807548522949219,0.0001652192004257813,0.0007720923167653382,0.0003830093774013221
18155904.9197495,3.138852119445801,154883.484375,-127015.4921875,3934.49462890625,0.0007718180422671139,-0.000176427565747872,0.0004193604690954089
18155904.9682969,3.138852119445801,-0.20540890097618103,-0.0006200040224939585,9.844412803649902,0.00012840685667470098,-0.000264978501945734,0.0002009965683100745
18155905.0186485,3.138852119445801,-0.2155950516462326,-0.00555078499019146,9.897043228149414,0.0005505274748429656,0.00012384461297187954,-0.0003086982178501785
18155905.0713907,3.138852119445801,-0.20178596675395966,0.0032683364115655422,9.75328540802002,0.0002436627255519852,-0.0001235354138771072,0.00031100958585739136
18155905.116071,3.138852119445801,-0.20200973749160767,-0.007103237323462963,9.746692657470703,0.000252618920058012,-8.696949953446165e-05,-0.0006307177827693522
18155905.1633251,3.138852119445801,-0.20684780180454254,0.007919684052467346,9.794854164123535,0.00042232166742905974,-0.00010261712304782122,-0.00028734776424244046
18155905.2071075,3.138852119445801,-0.20604683458805084,0.0002660031896084547,9.851531028747559,-0.00043591257417574525,0.0005743165384046733,6.301989924395457e-05
18155905.2798815,3.138852119445801,-0.2069687843322754,-0.006798948161303997,9.79959774017334,-3.283085243310779e-05,1.0158551958738826e-05,0.0005623939214274287
18155905.2798815,3.138852119445801,-0.20321837067604065,0.0017226365162059665,9.785611152648926,-0.00041583762504160404,-0.0005606270278804004,4.752039967570454e-05
18155905.3414125,3.138852119445801,-0.2165641337633133,0.0022408440709114075,9.829535484313965,-0.00010455316805746406,-6.77183415973559e-05,0.000935589661821723
18155905.3999306,3.138852119445801,-0.20479418337345123,0.000714081572368741,9.81849193572998,0.00018119747983291745,-0.00020222735474817455,-6.022454545018263e-05
18155905.507315,3.138852119445801,-0.20861539244651794,0.002519751200452447,9.815450668334961,-0.0003139082109555602,-4.5743036025669426e-06,-0.00013496105384547263
18155905.5802119,3.138852119445801,-0.21188609302043915,7.75698572397232e-06,9.765630722045898,0.0001314367400482297,-0.0004223181458655745,0.00016029799007810652
18155905.6439512,3.138852119445801,-0.20797030627727509,0.00135080236941576,9.789841651916504,-3.0062372388783842e-05,-3.241941158194095e-05,8.561038703192025e-05
18155905.7198445,3.138852119445801,-0.20400969684123993,0.0010166836436837912,9.8375244140625,-0.00038022076478227973,8.056256774580106e-05,-0.0005751913995482028
18155905.7756037,3.138852119445801,-0.20148298144340515,-0.00024222582578659058,9.833996772766113,8.517831156495959e-05,-0.0006905766786076128,-0.00022874565911479294
18155905.8295248,3.138852119445801,-0.20547887682914734,0.0021428056061267853,9.79837417602539,-0.00023333590070251375,-0.0006396243115887046,-0.00032727752113714814
18155905.9152233,3.138852119445801,-0.20345255732536316,0.0010115319164469838,9.78286361694336,4.03156882384792e-05,-0.00028643955010920763,-0.000590799783822149
18155905.992771998,3.138852119445801,-0.20557937026023865,0.0012596584856510162,9.793115615844727,0.00039429415483027697,0.00020018412033095956,-0.0002759068156592548
18155906.0589357,3.138852119445801,-0.20567560195922852,-0.0008993063820526004,9.804676055908203,-5.210647941567004e-05,-0.0005371787119656801,-0.0005445937858894467
18155906.1226925,3.1388304233551025,5.411949157714844,-0.001023689517751336,9.537825584411621,0.051961999386548996,-7.17160728527233e-05,-0.0004439608892425895
18155906.2193168,3.138852119445801,11.181641578674316,0.00015452888328582048,9.47618579864502,0.05213208869099617,0.0004084615793544799,-0.00021141812612768263
18155906.2826551,3.138874053955078,6.924847602844238,0.004088365472853184,9.872966766357422,0.032009050250053406,-0.0005190055817365646,0.0008773348527029157
18155906.3676046,3.138852119445801,4.522891521453857,-0.003111983649432659,9.950382232666016,0.00919871125370264,-0.0003385196905583143,-7.7855795098003e-05
18155906.4589434,3.138852119445801,3.5410754680633545,-0.0038719624280929565,9.866966247558594,-0.005931628867983818,-0.00027926970506086946,0.00021633299184031785
18155906.5396144,3.138874053955078,2.9844560623168945,-0.0026968789752572775,9.82136058807373,-0.010472746565937996,0.0007831661496311426,6.275637861108407e-05
18155906.6207306,3.1388304233551025,1.7667860984802246,0.0025019189342856407,9.856130599975586,-0.025076955556869507,0.0004431565757840872,-0.0006296142237260938
18155906.697220698,3.1388304233551025,-0.5152276158332825,0.0011360030621290207,9.90742015838623,-0.025442877784371376,0.00026469523436389863,0.00054320995695889
18155906.7775822,3.138852119445801,0.633563756942749,-0.004954807460308075,9.734877586364746,-0.016676656901836395,-0.00022576461196877062,0.00031902515911497176
18155906.8567817,3.138852119445801,1.4612489938735962,-0.005620873533189297,9.727898597717285,-0.006800927221775055,-1.705484464764595e-05,-0.000647346896585077
18155906.9088334,3.138874053955078,1.8258126974105835,0.001312833628617227,9.780584335327148,-0.0030044883023947477,0.0005148472264409065,5.457482620840892e-05
18155906.9708769,3.138852119445801,2.1321957111358643,0.004311523400247097,9.674910545349121,0.00040819437708705664,0.0003468251379672438,0.00029416108736768365
18155907.0651291,3.138874053955078,2.192403793334961,0.0033250648993998766,9.773917198181152,0.0032450167927891016,4.948787682224065e-05,0.0001933251623995602
18155907.152858898,3.138874053955078,2.232787609100342,0.0034496732987463474,9.803657531738281,0.002654419280588627,-6.811786442995071e-05,3.1054809369379655e-05
18155907.2253251,3.138852119445801,1.6057835817337036,-0.00438010273501277,9.825088500976562,-0.006567002739757299,-3.183210355928168e-05,-0.0004484647943172604
18155907.2937776,3.138874053955078,-0.3705468773841858,0.00785104651004076,9.898884773254395,-0.011700708419084549,-0.0003865027683787048,0.0002970685891341418
18155907.383496,3.1388959884643555,0.3616544008255005,0.00044549175072461367,9.774309158325195,-0.007421026472002268,0.0002531294012442231,0.00030764041002839804
18155907.455003,3.1388959884643555,1.1403263807296753,0.004249530844390392,9.770493507385254,-0.0013487952528521419,0.00038362626219168305,0.00037733966019004583
18155907.5353289,3.138874053955078,1.0359896421432495,0.004563159309327602,9.76772689819336,-0.003924254793673754,0.00012055107072228566,-0.0005184758338145912
18155907.5991523,3.1388304233551025,-0.06505393981933594,0.009164966642856598,9.858574867248535,-0.00662880577147007,0.00032597524113953114,0.00025131707661785185
18155907.676868,3.138852119445801,0.07294954359531403,-0.0049095298163592815,9.81307601928711,-0.004286570008844137,0.00029049214208498597,0.0006748493178747594
18155907.754763998,3.1388304233551025,0.851908266544342,-0.0021412500645965338,9.762401580810547,0.0014627636410295963,-0.00014163131709210575,0.00048531420179642737
18155907.842666,3.138852119445801,1.238710641860962,0.0025468110106885433,9.787187576293945,0.0025432996917515993,0.0005518347024917603,-0.00013178463268559426
18155907.9014211,3.138852119445801,0.7420072555541992,0.0037569431588053703,9.808650970458984,0.000410674256272614,0.00013317802222445607,4.0039867599261925e-05
18155907.9716639,3.1388304233551025,0.7704859375953674,-0.004955454263836145,9.814178466796875,0.0016846205107867718,0.0002724656369537115,0.0002590701333247125
18155908.0402855,3.1388304233551025,1.0923229455947876,-0.0021740442607551813,9.780864715576172,0.002392812166363001,-0.00012485319166444242,-1.5490113582927734e-05
18155908.1128223,3.1388959884643555,1.3207801580429077,0.003595843445509672,9.776618003845215,0.003296762937679887,-0.0004295624967198819,-0.00019545973918866366
18155908.191883698,3.1388959884643555,1.4332125186920166,0.0018746561836451292,9.780074119567871,0.003044426441192627,0.000393890542909503,0.00026042512035928667
18155908.2930032,3.1388959884643555,0.9427712559700012,-0.0020489871967583895,9.807299613952637,0.0032179898116737604,0.0002159730502171442,-0.00022319235722534359
18155908.3772801,3.138852119445801,1.9616420269012451,0.004823845811188221,9.93018627166748,0.005813147407025099,0.0005176974809728563,0.00010306618787581101
18155908.4839289,3.138852119445801,-1.8662660121917725,0.0040710424073040485,9.786572456359863,0.005348921753466129,-0.00020312225387897342,-0.00029277268913574517
18155908.5957049,3.138874053955078,-0.6864668726921082,-0.0006630894495174289,9.79802417755127,0.005257780198007822,0.0006789417820982635,0.0002321543579455465
18155908.6845007,3.138852119445801,6.012269496917725,-0.0013122059172019362,9.807882308959961,-0.009022514335811138,-0.0001460561907151714,0.0001102499445551075
18155908.8322609,3.138874053955078,-16.079700469970703,-0.002657547825947404,9.92286491394043,-0.014297076500952244,-4.505275865085423e-05,-0.00010713565279729664
18155908.9202588,3.1388304233551025,13.52304744720459,-0.003514285199344158,9.758069038391113,-0.006566199939697981,0.0006935608107596636,-0.0005122440052218735
18155909.0133052,3.138852119445801,-0.8298940658569336,0.0013947957195341587,9.804756164550781,-0.004489317070692778,5.0452628784114495e-05,0.00048650079406797886
18155909.1400286,3.138852119445801,-11.143869400024414,-0.0014471386093646288,9.832793235778809,-0.009888744913041592,-0.0004196450754534453,-0.0009245275869034231
18155909.247426398,3.138874053955078,4.180301189422607,0.004675716161727905,9.872457504272461,-0.0003317060472909361,-0.00016386061906814575,0.0007790130912326276
18155909.3526746,3.138874053955078,-0.2685633897781372,-0.005007220432162285,9.82773494720459,0.008957925252616405,0.0002787135890685022,-0.00014349803677760065
18155909.446431,3.138852119445801,1.9341099262237549,0.0021209281403571367,9.785421371459961,0.014088019728660583,-0.00014687702059745789,0.0005808018031530082
18155909.5479965,3.138874053955078,-1.0567638874053955,-0.005421746522188187,9.786336898803711,0.012902876362204552,0.0005937524256296456,0.0005827784771099687
18155909.634697698,3.138852119445801,0.4555450975894928,-0.0023007949348539114,9.834348678588867,0.013584304600954056,0.0005657629808411002,-0.00036275380989536643
18155909.7741788,3.138852119445801,-11.406360626220703,0.002368163550272584,9.809611320495605,0.014813719317317009,0.00015438845730386674,0.00046775356167927384
18155909.8477092,3.1388304233551025,12.57284164428711,-0.0004576807841658592,9.797891616821289,0.009410906583070755,-9.741866961121559e-05,5.9993068134645e-05
18155909.9509556,3.1388304233551025,-1.1743457317352295,-0.0006295844214037061,9.874473571777344,0.0038860938511788845,0.00013953540474176407,0.00029580548289231956
18155910.0419809,3.138852119445801,1.4636616706848145,-0.0026070401072502136,9.91534423828125,0.005797394085675478,0.00041813714778982103,0.00016715741367079318
18155910.1193926,3.138852119445801,0.1974256932735443,-0.003998075146228075,9.867419242858887,0.008093252778053284,0.0005626977072097361,-0.0007741361041553319
18155910.2137932,3.1388304233551025,0.14914074540138245,0.0019764741882681847,9.826353073120117,0.008463847450911999,0.00027503492310643196,-0.00022765249013900757
18155910.3047306,3.138874053955078,0.13419656455516815,-0.002359080594033003,9.816534996032715,0.007712165825068951,0.0005974708474241197,0.00014946141163818538
18155910.3890474,3.138852119445801,0.15914678573608398,0.0009289924055337906,9.80868148803711,0.008027196861803532,0.00046607948024757206,8.002477989066392e-05
18155910.4901885,3.138874053955078,-0.2512575089931488,-0.000904926797375083,9.772368431091309,0.00759322801604867,-0.0007794577395543456,8.872622856870294e-06
18155910.5670647,3.138852119445801,0.4739089906215668,0.004199640825390816,9.839978218078613,0.0064903623424470425,-0.00011691997497109696,-0.00010604236740618944
18155910.6599666,3.138874053955078,-0.34837421774864197,-0.00275132292881608,9.873658180236816,0.0004998283111490309,-0.0006206706166267395,0.0003516561700962484
18155910.7875593,3.138874053955078,-9.374146461486816,-0.0038098222576081753,9.883753776550293,0.0008807851118035614,-0.00011355140304658562,-0.00022450159303843975
18155910.8893154,3.138852119445801,7.09599494934082,-0.001097141532227397,9.866353988647461,0.005378408823162317,0.0003696031344588846,0.0007182727567851543
18155910.9649092,3.138852119445801,1.7032077312469482,0.007749677635729313,9.862163543701172,0.006359628401696682,-0.00010405568173155189,-9.231069998349994e-05
18155911.0685958,3.138874053955078,-2.1881890296936035,-0.004509254824370146,9.793601036071777,0.00556734437122941,0.0001753255055518821,0.0006155512528494
18155911.1959184,3.138852119445801,-7.649877548217773,0.0053416658192873,9.826704025268555,0.007748323027044535,-0.0004537842469289899,0.0004532712046056986
18155911.2794703,3.138852119445801,9.356657981872559,-0.0009505931520834565,9.797120094299316,0.007748955860733986,-6.629922427237034e-05,0.0002644852502271533
18155911.394083,3.138852119445801,-6.298521041870117,0.0004249376943334937,9.783130645751953,0.00808440800756216,0.00017886616114992648,-0.00014692751574330032
18155911.4977922,3.138852119445801,3.922131061553955,-0.0031782807782292366,9.816020965576172,0.004966033156961203,3.746119182324037e-05,0.00018707613344304264
18155911.5699883,3.138852119445801,2.1705548763275146,0.0004928246489726007,9.899349212646484,0.0036747700069099665,-0.0003147477109450847,-6.153750291559845e-05
18155911.7169953,3.138874053955078,-13.788593292236328,-0.0012701039668172598,9.871658325195312,0.006694461684674025,-0.00020840785873588175,-0.00036934477975592017
18155911.8017113,3.138852119445801,13.357758522033691,0.0027578556910157204,9.857392311096191,0.007764744572341442,0.0011296112788841128,-0.0003957711160182953
18155911.8928581,3.138852119445801,0.10018432140350342,-0.0069333892315626144,9.800910949707031,0.008031953126192093,0.00017023031250573695,0.00025919597828760743
18155912.0123634,3.138852119445801,-7.426913738250732,0.003728383919224143,9.821259498596191,0.00813335832208395,0.0006763524143025279,-0.00038484862307086587
18155912.0993298,3.138852119445801,7.653903961181641,-0.0003373404033482075,9.809453964233398,0.007451471872627735,-0.0003898011054843664,-0.0005555367679335177
18155912.1959458,3.138852119445801,-0.10814942419528961,-0.0009832012001425028,9.776936531066895,0.006829716265201569,-0.00028786450275219977,-0.0009115541470237076
18155912.3410152,3.138874053955078,-12.477227210998535,0.0012882780283689499,9.872845649719238,0.005752041935920715,0.00018891527724917978,-4.362043910077773e-05
18155912.4458699,3.138874053955078,10.12478256225586,0.002028883434832096,9.815350532531738,0.0007446124800480902,-0.0004152326728217304,-0.0004153581103309989
18155912.549623,3.138874053955078,0.4146553575992584,0.0023841955699026585,9.874848365783691,0.003528609871864319,0.0003376265231054276,5.0230093620484695e-05
18155912.6545117,3.138852119445801,-0.5091711282730103,0.0010547888232395053,9.885766983032227,0.0068002622574567795,0.00029299253947101533,-0.0002061663253698498
18155912.7294715,3.138874053955078,2.4408302307128906,0.0011343448422849178,9.844208717346191,0.00809872429817915,-0.0003352607018314302,0.0004254707309883088
18155912.8188778,3.138874053955078,-0.017374301329255104,1.9364873878657818e-05,9.798009872436523,0.007556654047220945,0.0001272735244128853,0.0005940510891377926
18155912.9584908,3.138852119445801,-11.864232063293457,0.0034464201889932156,9.820231437683105,0.008372184820473194,0.00023883223184384406,6.920522719155997e-05
18155913.028233,3.138852119445801,12.965296745300293,-0.00037293368950486183,9.789677619934082,0.008353229612112045,0.000273197510978207,-0.000313667202135548
18155913.1675334,3.138852119445801,-12.885071754455566,0.0009086199570447206,9.82751750946045,0.007868848741054535,-0.0001702453155303374,-0.0007296759285964072
18155913.2407115,3.138874053955078,12.677908897399902,-0.0042250147089362144,9.793363571166992,0.004293410107493401,0.0002630116359796375,-0.00015681178774684668
18155913.3433318,3.138874053955078,-1.4189417362213135,0.00974317453801632,9.859317779541016,0.0007074036984704435,-0.0001704698079265654,-0.0007093024905771017
18155913.413966298,3.138874053955078,1.399390697479248,-0.0009024860337376595,9.916632652282715,0.003901237389072776,-0.00025483581703156233,0.0003855823306366801
18155913.5508874,3.138874053955078,-12.288272857666016,-0.0018344800919294357,9.858593940734863,0.007005773019045591,-0.0007011658162809908,3.3055923267966136e-05
18155913.6258875,3.138874053955078,12.292276382446289,0.0011287530651316047,9.82555103302002,0.008388754911720753,-0.0003221867955289781,0.0003738428931683302
18155913.7612049,3.138874053955078,-11.700216293334961,-0.0009747813455760479,9.82341194152832,0.00817466527223587,-0.0006451633526012301,0.0007682550931349397
18155913.8472552,3.138874053955078,11.370935440063477,0.0014661538880318403,9.799903869628906,0.00824068021029234,-0.00031280211987905204,0.0005578770651482046
18155913.9210736,3.138874053955078,0.1429307460784912,-0.0019283381989225745,9.78172779083252,0.008435215801000595,0.0011995973763987422,0.0002729808911681175
18155914.0089102,3.138874053955078,0.2311324179172516,-0.0025258054956793785,9.802733421325684,0.008180663920938969,-1.5105868442333303e-05,-0.00013334174582269043
18155914.1330407,3.138852119445801,-8.628214836120605,0.0012515713460743427,9.852971076965332,0.004197797272354364,4.576247010845691e-05,0.0002126273902831599
18155914.2345885,3.138874053955078,7.755251884460449,0.0018550085369497538,9.852215766906738,-0.00018097285646945238,0.0005022071418352425,0.0006171231507323682
18155914.3244024,3.138852119445801,0.93625807762146,-0.008300273679196835,9.91010856628418,0.005225978326052427,-0.0004010801203548908,-0.00030698845512233675
18155914.4108406,3.138852119445801,0.1547938734292984,0.0010639422107487917,9.869039535522461,0.007452331483364105,6.20200953562744e-05,6.279107765294611e-05
18155914.5040833,3.138852119445801,0.14797648787498474,-0.00704014440998435,9.804466247558594,0.007857871241867542,0.0003777302918024361,0.00012358187814243138
18155914.5867307,3.138852119445801,0.09780752658843994,0.006843332666903734,9.802431106567383,0.007459895685315132,-0.00039650601684115827,0.00022784700558986515
18155914.6963257,3.1388304233551025,-4.435319423675537,0.0008996649412438273,9.831707000732422,0.005692710168659687,-4.723676829598844e-05,-0.0002275786391692236
18155914.7802335,3.138852119445801,4.335395812988281,-0.0010872147977352142,9.815781593322754,0.007774246856570244,0.0003425104368943721,-0.0004329322837293148
18155914.8816708,3.138852119445801,-0.7185671925544739,0.00290820375084877,9.757436752319336,0.006856861524283886,-0.0001010027335723862,-0.0005237653967924416
18155914.9623632,3.1388304233551025,0.7915731072425842,-0.0032915545161813498,9.889677047729492,0.0021231593564152718,1.9790028090937994e-05,-0.00017182531883008778
18155915.0623767,3.138852119445801,0.07363878935575485,0.007662126794457436,9.863323211669922,0.0018894936656579375,0.00015996693400666118,0.0002963174774777144
18155915.1975062,3.1388304233551025,-10.328048706054688,0.001914922264404595,9.87596607208252,0.0033564504701644182,-0.00011012358299922198,1.1272120900684968e-05
18155915.282299,3.138874053955078,11.402778625488281,-0.0019501856295391917,9.82779598236084,0.004772880580276251,-0.0005198540748097003,5.9245838201604784e-05
18155915.371349,3.138874053955078,0.1274702548980713,-0.0020163594745099545,9.780424118041992,0.0038237660191953182,-0.0007494852761738002,-0.00030545913614332676
18155915.4869864,3.138874053955078,-6.1394758224487305,0.0008807342383079231,9.804505348205566,0.003963219467550516,0.0001333761028945446,8.09954508440569e-05
18155915.5585175,3.138874053955078,6.986089706420898,-0.0008624548208899796,9.820114135742188,0.0037191917654126883,0.0005032807821407914,0.0001892820291686803
18155915.6639945,3.138852119445801,-2.6343929767608643,0.0015218087937682867,9.776285171508789,0.00439702020958066,-0.0003790855989791453,0.00016363705799449235
18155915.7725442,3.138874053955078,-1.0554554462432861,0.0006013276288285851,9.823799133300781,0.0024611034896224737,0.0003382403519935906,-0.00018857094983104616
18155915.8744003,3.1388959884643555,2.8506250381469727,0.0006259941728785634,9.843174934387207,0.000469001242890954,-0.0005369788268581033,8.445144339930266e-05
18155915.944955,3.138874053955078,1.1356823444366455,-1.3543758541345596e-05,9.857220649719238,-7.622581324540079e-05,-1.1248899681959301e-05,-0.0001964018156286329
18155916.0141376,3.138874053955078,0.13879549503326416,0.007108575198799372,9.790531158447266,-0.00048630888340994716,-3.7464651541085914e-05,-0.00022583725512959063
18155916.1109019,3.1388959884643555,0.2269040197134018,0.0037413269747048616,9.766997337341309,0.0008651820244267583,0.000886693422216922,0.0009511153912171721
18155916.1854619,3.1388959884643555,0.347054123878479,-0.004787355195730925,9.831321716308594,0.001391701865941286,-4.821008042199537e-05,0.0006962516345083714
18155916.2592825,3.138874053955078,0.29875653982162476,-0.002611219184473157,9.807973861694336,0.0009018736891448498,0.00012060186418239027,-0.00028324604500085115
18155916.3580811,3.138874053955078,0.2619239389896393,-0.0016106725670397282,9.784858703613281,6.498588481917977e-05,8.254894055426121e-05,-0.00020434067118912935
18155916.4443368,3.138874053955078,0.24302949011325836,0.0014691194519400597,9.843940734863281,-0.0007483998197130859,-0.000682359910570085,-0.00016892363782972097
18155916.525089398,3.1388959884643555,0.23203818500041962,-0.007601000834256411,9.775944709777832,0.0004718294076155871,0.00042303165537305176,-0.000499179121106863
18155916.6265393,3.138874053955078,-0.5288832783699036,-0.0010137236677110195,9.811208724975586,-0.000553659163415432,-0.0006818466354161501,-0.00015576925943605602
18155916.6879204,3.138874053955078,1.0622026920318604,-0.0025415336713194847,9.835402488708496,-0.0010766396299004555,-2.316720929229632e-05,-0.00014873093459755182
18155916.7704054,3.138874053955078,0.09871205687522888,0.0026057837530970573,9.78030014038086,-0.0006509821396321058,-0.00012004958261968568,0.00020726198272313923
18155916.887122698,3.138874053955078,-6.739778518676758,-0.004430236294865608,9.833379745483398,-0.001012101536616683,0.0010431769769638777,-0.0007293815724551678
18155916.9863705,3.1388959884643555,6.486374855041504,-0.001152708544395864,9.79226303100586,0.00037208583671599627,-0.00044311356032267213,-0.00024574759299866855
18155917.0733806,3.138874053955078,0.14640648663043976,0.0037278460804373026,9.834015846252441,0.0005397218628786504,0.0003689650329761207,-0.0004184337449260056
18155917.1278253,3.138874053955078,0.07295554876327515,-0.0024193772114813328,9.802560806274414,0.0002455596113577485,-5.3460720664588735e-05,-3.6550503864418715e-05
18155917.1981877,3.138874053955078,0.08904246240854263,-9.715859778225422e-05,9.78177547454834,-0.0008631355594843626,-0.00035084335831925273,0.0002614270488265902
18155917.2935542,3.138874053955078,0.11455192416906357,0.008215436711907387,9.786752700805664,-0.0004923159722238779,0.000266231712885201,0.0002499614201951772
18155917.3664805,3.1388959884643555,0.1360950469970703,0.0033241226337850094,9.832925796508789,-5.2011964726261795e-05,0.0002040737890638411,-0.0005147057236172259
18155917.4492031,3.1388959884643555,0.12020218372344971,-0.005197050049901009,9.77554702758789,-0.00015156972222030163,0.0003068507357966155,-0.00018443702720105648
18155917.5466787,3.138874053955078,0.1372237503528595,-0.004065383225679398,9.829245567321777,0.0006758089293725789,4.860169792664237e-05,-0.00048701645573601127
18155917.6152861,3.138874053955078,0.1501826047897339,0.007094903849065304,9.840999603271484,0.00012917026469949633,-9.379042603541166e-05,0.0008093024371191859
18155917.6812952,3.1388959884643555,0.12430933117866516,-0.0026539580430835485,9.737439155578613,0.000346182263456285,0.0006080298917368054,-7.356479181908071e-05
18155917.778927602,3.138874053955078,0.14329694211483002,-0.0039201900362968445,9.826051712036133,0.0008247958030551672,0.0010168631561100483,-0.00018047456978820264
18155917.8828791,3.1388959884643555,-1.6220356225967407,0.0035867029801011086,9.815470695495605,0.0002019396924879402,0.0004911643918603659,2.9027729397057556e-05
18155917.9592577,3.138874053955078,2.132049560546875,-0.002934441901743412,9.825860977172852,-0.0001990405289689079,8.869149314705282e-05,-0.00015414475637953728
18155918.0265197,3.1388959884643555,0.14281366765499115,-0.008323336951434612,9.822697639465332,-0.0002753243315964937,8.841069211484864e-05,-0.000785849173553288
18155918.0989152,3.138874053955078,0.20791661739349365,0.005099162459373474,9.771629333496094,0.00025528084370307624,-0.00018410448683425784,0.0010364699410274625
18155918.1608416,3.1388959884643555,0.32636263966560364,-0.006406617350876331,9.784422874450684,0.0010239433031529188,0.0003174565208610147,-0.00016119988868013024
18155918.2647967,3.1388959884643555,-1.8858075141906738,0.002919577993452549,9.815412521362305,0.0002596744743641466,0.0003959392197430134,0.00040514589636586607
18155918.3435415,3.1388959884643555,2.2258076667785645,0.0010874071158468723,9.82944107055664,0.000345608132192865,-0.00024922037846408784,0.0002698752796277404
18155918.4304142,3.138874053955078,0.23137469589710236,0.0013653807109221816,9.818309783935547,0.00022047200764063746,0.0001447283138986677,-0.0007739654392935336
18155918.5088303,3.1388959884643555,0.232915461063385,-0.007273578085005283,9.782002449035645,0.00020365229283925146,-0.000565273396205157,2.8140189897385426e-05
18155918.5917169,3.1388959884643555,0.24388739466667175,0.003216950688511133,9.804391860961914,0.0008419894147664309,0.00028820239822380245,0.0005309561965987086
18155918.7148295,3.138874053955078,-8.48634147644043,-0.0033530844375491142,9.841787338256836,0.0006584891816601157,-0.00021935257245786488,-0.0006309752934612334
18155918.7858663,3.138874053955078,9.464539527893066,0.0013022278435528278,9.814949989318848,-5.674869316862896e-05,0.0005353968590497971,5.793209493276663e-05
18155918.8712542,3.138874053955078,0.18898873031139374,0.004499057773500681,9.789759635925293,-0.001224589068442583,-0.000515890249516815,-0.00040407280903309584
18155918.935827,3.1388959884643555,0.11683108657598495,-0.00504478020593524,9.77192211151123,-0.00031923013739287853,0.00033481602440588176,-0.00020910825696773827
18155919.0325425,3.1388959884643555,0.09052224457263947,0.0012192856520414352,9.826292991638184,9.242637315765023e-05,-9.254855831386521e-05,0.0007547016721218824
18155919.1294479,3.138874053955078,0.07572024315595627,-0.001771077630110085,9.818013191223145,-3.6704877857118845e-05,-0.00019991114095319062,0.0003880284493789077
18155919.1947,3.1388959884643555,0.08894367516040802,0.0024128612130880356,9.805390357971191,-0.0008174605900421739,-0.0008867259602993727,0.0003410335339140147
18155919.2706556,3.1388959884643555,0.135700523853302,-0.0004860963672399521,9.825774192810059,-0.000312563352053985,-0.0005067597958259284,-0.00014183840539772063
18155919.3487502,3.138874053955078,0.15728871524333954,-0.0030435628723353148,9.791616439819336,-0.00019304400484543294,-0.0006226505502127111,0.00010027601092588156
18155919.4340646,3.1388959884643555,0.1631728857755661,-0.004100772552192211,9.826800346374512,0.0002917371457442641,0.0007397203589789569,0.0001509781286586076
18155919.4992021,3.1388959884643555,0.18672573566436768,-0.001980176195502281,9.766470909118652,0.0008483713027089834,-0.00037678726948797703,-0.000447065889602527
18155919.5776153,3.138874053955078,0.18028804659843445,-0.0033417236991226673,9.832501411437988,0.0007927436381578445,-3.3390730095561594e-05,0.0008265557116828859
18155919.6447045,3.1388959884643555,0.16784396767616272,0.005249756388366222,9.841947555541992,4.071305738762021e-06,0.0002588367206044495,-0.000390529225114733
18155919.7090976,3.1388959884643555,0.1776599884033203,-0.0025830003432929516,9.741517066955566,0.00010602832480799407,-0.0003767950111068785,-0.0010016628075391054
18155919.7747258,3.138874053955078,0.17580632865428925,0.006089440081268549,9.819775581359863,0.00023721117759123445,-0.0006414952804334462,-0.00045030933688394725
18155919.8708055,3.138874053955078,0.16344749927520752,0.005349086597561836,9.827827453613281,0.0005251168040558696,-0.0001327621575910598,-0.00023596250684931874
18155919.934511,3.1388959884643555,0.19128583371639252,-0.0057917749509215355,9.813282012939453,-0.00028297913377173245,-0.00035392839345149696,-0.00022483999782707542
18155920.0333186,3.1388959884643555,0.15772975981235504,0.0028957929462194443,9.802059173583984,0.0003321825643070042,0.0010694214142858982,-0.00042547466000542045
18155920.0976456,3.1388959884643555,0.18093335628509521,-0.0035541346296668053,9.818368911743164,-0.0002736567985266447,0.00020377633336465806,0.0002823411487042904
18155920.1584534,3.1388959884643555,0.1723242998123169,0.003235887736082077,9.82076644897461,0.00010553072206676006,-0.0007908350671641529,-0.00026317237643525004
18155920.2403983,3.1388959884643555,0.19874638319015503,-0.003672888968139887,9.778853416442871,0.000110397013486363,-0.0002328800765099004,0.00017567907343618572
18155920.3046623,3.138874053955078,0.24666057527065277,0.0006611775606870651,9.813422203063965,0.00012376363156363368,0.00034204282565042377,0.0006817196263000369
18155920.3908182,3.1388959884643555,0.23155991733074188,0.007386339828372002,9.833344459533691,-0.00016799080185592175,0.000728489481844008,-0.0007320326403714716
18155920.4633955,3.138874053955078,0.2224590927362442,0.0009267657878808677,9.79391098022461,-0.0006048752111382782,4.991759124095552e-05,-0.0007837650482542813
18155920.5494365,3.138874053955078,0.20941899716854095,0.00171229790430516,9.806138038635254,0.0002699574688449502,0.0006597986212000251,-0.0001252537767868489
18155920.6307541,3.1388959884643555,0.21316494047641754,-0.008564455434679985,9.781991004943848,0.0009177656611427665,-0.0003260997764300555,-0.00048583955504000187
18155920.6961143,3.1388959884643555,0.22929546236991882,0.0004822338232770562,9.823960304260254,7.626574370078743e-05,7.518750499002635e-05,0.00017030468734446913
18155920.7729339,3.138874053955078,0.20072464644908905,-0.0010554606560617685,9.827789306640625,0.00012097982835257426,-0.00021256950276438147,-0.00013223016867414117
18155920.8565977,3.1388959884643555,0.20743218064308167,-0.001399302389472723,9.820823669433594,0.00017154244414996356,0.00013507180847227573,0.0005021017277613282
18155920.9509201,3.138874053955078,0.19391313195228577,0.0034252030309289694,9.771032333374023,-2.4926655896706507e-05,-0.0002986298641189933,0.0001189039830933325
18155921.015311,3.138874053955078,0.21209944784641266,-0.003219367004930973,9.812369346618652,0.00034613246680237353,-0.00010800326708704233,9.354598296340555e-05
18155921.1247221,3.138874053955078,-4.546031951904297,0.006603813264518976,9.8287992477417,0.0008256410364992917,-0.0004815614374820143,0.000713073241058737
18155921.2047694,3.138874053955078,4.555294036865234,-0.0029098703525960445,9.808924674987793,-0.0005000107921659946,-0.0007248136680573225,0.0001362108305329457
18155921.3287612,3.138874053955078,-8.909306526184082,0.00437630619853735,9.82290267944336,-0.00013159072841517627,-0.000358393182978034,-0.00017564934387337416
18155921.4329207,3.138874053955078,6.669964790344238,-0.00041804672218859196,9.78989315032959,-2.807589407893829e-05,-0.0006361057166941464,-0.0002700280165299773
18155921.546462,3.138874053955078,-3.328138589859009,0.0017847154522314668,9.819053649902344,-0.00018808821914717555,-0.00011042444384656847,-0.00034314277581870556
18155921.6120587,3.1388959884643555,6.482907772064209,0.002254690509289503,9.8035249710083,-0.0006444150931201875,0.0006940686143934727,0.0005291785346344113
18155921.675432898,3.1388959884643555,0.07567707449197769,0.0014950388576835394,9.815953254699707,-0.0013450151309370995,-8.362041262444109e-05,0.00045204488560557365
18155921.7436283,3.1388959884643555,0.025274328887462616,0.0007808816735632718,9.833244323730469,-0.0007955640321597457,0.00027014626539312303,-0.0004973599570803344
18155921.8207706,3.138874053955078,0.03734520077705383,-0.0002722530625760555,9.76325511932373,-0.0012434140080586076,0.0001497712219133973,0.0003195428289473057
18155921.8827601,3.138874053955078,0.09762339293956757,0.0005911200423724949,9.808684349060059,-0.0007026520324870944,-0.0005653005791828036,-0.0005256808362901211
18155921.9471593,3.1388959884643555,0.07360424101352692,0.0038704113103449345,9.798439025878906,-0.00032284820917993784,-0.00012444477761164308,0.000605488836299628
18155922.0065726,3.1388959884643555,0.08538754284381866,0.006042388267815113,9.841181755065918,-0.0006866726907901466,-9.940781455952674e-05,0.00038166920421645045
18155922.0664745,3.1388959884643555,0.10587450861930847,-0.00016814772970974445,9.794297218322754,0.000595377292484045,0.0004062564403284341,-0.0005907000158913434
18155922.2129917,3.1388959884643555,-14.488237380981445,-0.0003117203013971448,9.83481502532959,0.00015010838978923857,-0.0001662118884269148,-0.0003438117273617536
18155922.3095197,3.138874053955078,12.532350540161133,-0.004468939732760191,9.786834716796875,0.00037204177351668477,0.00014343176735565066,-0.00016211043111979961
18155922.383176,3.1388959884643555,0.18881288170814514,-0.0873718187212944,9.991771697998047,0.009634762071073055,-0.024749325588345528,-0.00010530251893214881
18155922.4764082,3.138874053955078,0.03739878907799721,0.12826290726661682,9.596396446228027,-0.0077590374276041985,0.01615503616631031,0.0004929333226755261
18155922.5310978,3.138874053955078,0.09609462320804596,-0.10309982299804688,9.752129554748535,-0.004493372514843941,0.010136006399989128,-0.00025147266569547355
18155922.6282477,3.1388304233551025,0.332468718290329,0.05021537095308304,9.989093780517578,0.007901133969426155,0.025798987597227097,0.0005238101584836841
18155922.7744221,3.1388304233551025,-12.02107048034668,-0.044415682554244995,9.749197006225586,-0.006813076324760914,-0.016111988574266434,-0.00017192195809911937
18155922.8569581,3.1388304233551025,13.470648765563965,0.05753267928957939,9.731273651123047,-0.002207511570304632,-0.008094954304397106,0.0001263632148038596
18155922.928464,3.1388304233551025,0.3266700804233551,0.014159195125102997,9.906862258911133,-0.0012730509042739868,-0.004622863605618477,-0.0002736973110586405
18155922.9995167,3.1388959884643555,0.2906399071216583,-0.0030840556137263775,9.818260192871094,-0.0006009882781654596,-0.003947331570088863,-0.0002334723249077797
18155923.0788665,3.138852119445801,0.18565809726715088,-0.039813581854104996,10.032845497131348,-0.007993648760020733,-0.011262507177889347,0.00011402856034692377
18155923.1427247,3.138852119445801,0.3649865388870239,0.0795997902750969,9.458191871643066,0.007844344712793827,0.006367392372339964,0.00012402390711940825
18155923.1880332,3.138874053955078,0.2303510159254074,-0.08576013892889023,9.815885543823242,0.004838328342884779,0.004386706277728081,0.00033282110234722495
18155923.2537924,3.138874053955078,0.15979206562042236,0.032395947724580765,10.04875373840332,-0.010832247324287891,0.019001822918653488,-0.00040080584585666656
18155923.3246162,3.138852119445801,0.25412169098854065,-0.03948453813791275,9.91735553741455,-0.004804615862667561,0.010702688246965408,0.0003142192726954818
18155923.4250723,3.1388304233551025,-0.04434267058968544,-0.017500465735793114,9.483857154846191,0.0023816691245883703,-0.004347235895693302,-0.0004985352279618382
18155923.5007067,3.138874053955078,0.13416346907615662,0.04003011807799339,9.879328727722168,-0.0017546213930472732,-0.003107161493971944,0.00034480661270208657
18155923.5681016,3.138874053955078,-0.083184152841568,0.004968493711203337,9.866583824157715,-0.00309056811966002,-0.0018695848993957043,0.00011798062769230455
18155923.6289009,3.138874053955078,0.004558951128274202,-0.002551543992012739,9.77918815612793,-0.004303172696381807,-0.0008075601072050631,0.000485450669657439
18155923.7228883,3.138852119445801,-0.017330333590507507,-0.003910281229764223,9.818770408630371,-0.004185578320175409,-0.0005750879063270986,0.00016084950766526163
18155923.771901898,3.138852119445801,0.048764437437057495,0.0029025126714259386,9.806407928466797,-0.004350721836090088,-0.00029989934409968555,-0.0003781178966164589
18155923.8265927,3.138852119445801,0.03966281935572624,-0.002719795098528266,9.883183479309082,-0.0032446340192109346,-0.00011943485878873616,-0.00011936420924030244
18155923.8854361,3.138852119445801,0.0604170486330986,-0.0029679974541068077,9.767098426818848,-0.0031622617971152067,-1.596659785718657e-05,0.0004186466976534575
18155923.9731312,3.1388304233551025,0.058299191296100616,0.004662733990699053,9.80268383026123,-0.0015899041900411248,0.0009218181949108839,3.97380099457223e-05
18155924.0360828,3.138852119445801,0.11095426231622696,0.0010789795778691769,9.753886222839355,-8.034025086089969e-05,-0.00011370248830644414,0.0004520339716691524
18155924.1017595,3.138852119445801,0.0825648382306099,0.0010508301202207804,9.783804893493652,0.00027726817643269897,-9.657783812144771e-05,-0.0003317599184811115
18155924.1764257,3.138852119445801,0.07128101587295532,-0.002474213019013405,9.832671165466309,0.0005918541573919356,-0.00018854934023693204,8.20831919554621e-05
18155924.2638803,3.1388304233551025,0.09650109708309174,0.004804660566151142,9.803079605102539,0.00037430619704537094,0.0007038902258500457,-0.00010810530511662364
18155924.3232984,3.138852119445801,0.07821168750524521,-0.006420997437089682,9.799351692199707,0.0001307124039158225,0.0002800108341034502,-8.146512845996767e-05
18155924.399279602,3.1388304233551025,0.09046854823827744,0.011234902776777744,9.785849571228027,-0.00130645208992064,0.0033389083109796047,0.0007369881495833397
18155924.4709871,3.1388304233551025,0.10181606560945511,-0.009393987245857716,9.801628112792969,-0.002573904348537326,0.0035805432125926018,3.838289194391109e-05
18155924.5305796,3.138852119445801,0.1400940865278244,0.0007368891965597868,9.759285926818848,-0.003691664431244135,0.0014633819228038192,-0.00025676420773379505
18155924.6339268,3.1388089656829834,-1.4596927165985107,0.00622669979929924,9.773639678955078,-0.0023871909361332655,0.0007392593543045223,-0.0004819517198484391
18155924.6909518,3.1388304233551025,2.3473925590515137,0.007664589211344719,9.849417686462402,-0.0018903848249465227,0.0006224312237463892,-0.00011351518332958221
18155924.7589623,3.138852119445801,0.40946727991104126,0.0001453652512282133,9.803325653076172,-0.0026809005066752434,0.0004764834593515843,-0.00023423615493811667
18155924.8213091,3.1388089656829834,0.38355183601379395,0.004476248752325773,9.764791488647461,-0.0031126870308071375,-0.0006796011584810913,-0.0005216444842517376
18155924.8835812,3.1388304233551025,0.31940600275993347,0.005836149677634239,9.825865745544434,-0.0037241808604449034,-0.0002185878693126142,-0.000300425395835191
18155924.9418894,3.1388089656829834,0.3124973773956299,0.009626383893191814,9.836505889892578,-0.004450260661542416,-0.00033498735865578055,0.00026955577777698636
18155925.0031541,3.1387665271759033,0.33895018696784973,0.0050931209698319435,9.777506828308105,-0.0032840529456734657,0.0009706012206152081,-0.0003859008429571986
18155925.0652812,3.1387877464294434,0.3146020472049713,0.011197010055184364,9.786008834838867,-0.0025266881566494703,0.0026990403421223164,0.00034907652297988534
18155925.1251236,3.1387665271759033,0.30883198976516724,-0.0020701754838228226,9.783411026000977,-0.0017774337902665138,0.0010882570641115308,-0.00017644476611167192
18155925.220394,3.1387665271759033,0.18306393921375275,0.01265624724328518,9.774495124816895,-0.0017211181111633778,0.0005735452868975699,-0.00015322642866522074
18155925.311375998,3.1387665271759033,-0.007263856939971447,0.008477350696921349,9.824877738952637,-0.0007338100695051253,-5.2007861086167395e-05,6.512483378173783e-05
18155925.3911692,3.1387665271759033,0.04982869327068329,0.010988598689436913,9.792811393737793,-0.0002721644996199757,-0.00034625211264938116,-0.0002567215415183455
18155925.4864297,3.1387665271759033,0.0027042184956371784,0.009881721809506416,9.813798904418945,-0.0019306729082018137,-0.0001130874443333596,-0.00010427599772810936
18155925.5476376,3.1387877464294434,-0.14099638164043427,0.007441392634063959,9.82625675201416,-0.0012900832807645202,-0.000329449656419456,0.00040209924918599427
18155925.6096913,3.1387877464294434,-0.07209493219852448,0.013786154799163342,9.797436714172363,-0.0014405043330043554,-0.0006142764468677342,-0.0002626761852297932
18155925.7055921,3.1387877464294434,-1.1352866888046265,0.007826006039977074,9.847394943237305,-0.013138890266418457,0.00012529638479463756,-0.0007234272197820246
18155925.8293544,3.1387877464294434,-11.459168434143066,0.009394609369337559,9.886069297790527,-0.03651909530162811,0.00047030686982907355,-0.00018648389959707856
18155925.9253857,3.1388089656829834,0.9727550148963928,0.003267166204750538,9.921340942382812,-0.03979537636041641,0.0004957614000886679,0.0004189212922938168
18155926.0009312,3.1387877464294434,-7.827593803405762,0.008870493620634079,9.747722625732422,-0.035293981432914734,-0.00024825078435242176,0.0005850348970852792
18155926.0759526,3.1388089656829834,-8.081440925598145,0.012039310298860073,9.676165580749512,-0.028508922085165977,0.00035023182863369584,-1.4556455425918102e-05
18155926.1542332,3.1388304233551025,-8.171865463256836,0.015379219315946102,9.642589569091797,-0.02124219387769699,2.2255124349612743e-05,-0.00010417003068141639
18155926.246176198,3.1388304233551025,-10.270540237426758,0.012473240494728088,9.715489387512207,-0.037864167243242264,7.069068669807166e-05,0.0005500233382917941
18155926.3070296,3.1388089656829834,-9.165679931640625,0.01393699087202549,9.550973892211914,0.002393680391833186,0.0004015092854388058,-0.00025988847482949495
18155926.3665011,3.1387877464294434,-0.5318055748939514,0.005603409372270107,9.400040626525879,0.03240082785487175,-0.0001888162805698812,-0.0001658029796089977
18155926.4648604,3.1388089656829834,0.09184706211090088,0.008345198817551136,9.644820213317871,0.043917443603277206,0.0005278147873468697,0.0004621784610208124
18155926.5655059,3.1388089656829834,0.03227498382329941,0.012015323154628277,9.828558921813965,0.03759938105940819,0.00014531079796142876,1.0407234185549896e-05
18155926.6297693,3.1388089656829834,0.025636114180088043,0.00504421116784215,9.882549285888672,0.030737457796931267,-0.0005242251791059971,0.00031045169453136623
18155926.6759453,3.1388089656829834,0.033868465572595596,0.012441478669643402,9.887836456298828,0.026258908212184906,0.00016604548727627844,-0.0004635644145309925
18155926.7357747,3.1387877464294434,0.04868640378117561,0.010098417289555073,9.866312980651855,0.020732387900352478,-0.0003027874627150595,4.470672138268128e-05
18155926.809681,3.1388089656829834,0.06782439351081848,0.010233537293970585,9.85505199432373,0.01393943466246128,0.00016246574523393065,1.9614271877799183e-05
18155926.8854011,3.1387877464294434,0.0840313509106636,0.007376611698418856,9.841019630432129,0.009997868910431862,0.00025207558064721525,0.001394877559505403
18155926.9370156,3.1387877464294434,0.09567562490701675,0.009801114909350872,9.882035255432129,0.007469864562153816,-0.00013869814574718475,-0.00018765759887173772
18155926.9782266,3.1388089656829834,0.10448016226291656,0.008611195720732212,9.788546562194824,0.006449964363127947,0.00011848396388813853,0.00017337032477371395
18155927.0632023,3.1388089656829834,0.10660898685455322,0.009597847238183022,9.820388793945312,0.00366861536167562,0.0002530404308345169,0.0003852755471598357
18155927.1215153,3.1388089656829834,0.1166192963719368,0.00828771386295557,9.81986141204834,0.0031557867769151926,0.0005755291786044836,-0.0003653454768937081
18155927.1934807,3.1388089656829834,0.11541355401277542,0.011238104663789272,9.827154159545898,0.0010848380625247955,1.9410759705351666e-05,-0.00037407991476356983
18155927.2466822,3.1388089656829834,0.1150985062122345,0.022312402725219727,9.83650016784668,0.0009552990668453276,-0.0009757892112247646,0.0005520638078451157
18155927.2936285,3.1387877464294434,0.11951150745153427,0.013322676531970501,9.746055603027344,0.0003379046102054417,-0.000700173550285399,0.00032513440237380564
18155927.3774706,3.1387877464294434,0.12333066016435623,0.010244812816381454,9.859199523925781,0.0011623934842646122,0.00010767242929432541,-6.443824531743303e-05
18155927.4329738,3.1387877464294434,0.1261252611875534,0.010658655315637589,9.810789108276367,0.0003555200819391757,-0.0003346825251355767,0.0001367290533380583
18155927.5009015,3.1388089656829834,0.12247084081172943,0.006093151401728392,9.815544128417969,0.0005866799619980156,0.00023170873464550823,0.00039200062747113407
18155927.5856643,3.1387877464294434,0.12707388401031494,0.00998897384852171,9.796958923339844,0.00037171662552282214,-0.00017795962048694491,3.1903582566883415e-05
18155927.6615616,3.1388089656829834,0.12964096665382385,0.009236710146069527,9.800427436828613,0.00016725993191357702,-0.00026138502289541066,-0.0003145151713397354
18155927.7368534,3.1387877464294434,0.12161813676357269,0.006058050319552422,9.820626258850098,0.0005489675095304847,0.0005094479420222342,0.0009854875970631838
18155927.812797,3.1387877464294434,0.12499009072780609,0.007274365983903408,9.811681747436523,-0.0003456953854765743,-0.0002509008045308292,0.0007188227609731257
18155927.8890865,3.1388089656829834,0.12797610461711884,0.008389206603169441,9.812385559082031,0.00013511825818568468,-0.00020771881099790335,-0.0005609832587651908
18155927.9928387,3.1388089656829834,0.12141256034374237,0.010989464819431305,9.794270515441895,-5.926533049205318e-05,-5.5411001085303724e-05,-0.0001615744549781084
18155928.0720382,3.1388089656829834,0.12633652985095978,0.013531595468521118,9.831013679504395,0.00028989033307880163,0.0002658467856235802,-0.00018938271387014538
18155928.121231,3.1388089656829834,0.12407427281141281,0.013377989642322063,9.795228004455566,0.00019372878887224942,0.0004494566237553954,0.0002675296273082495
18155928.191775,3.1388089656829834,0.12814700603485107,0.00852789357304573,9.85491943359375,-9.322630648966879e-05,-0.0002288475225213915,-0.00029571529012173414
18155928.250058,3.1388089656829834,0.12762701511383057,0.009193835780024529,9.78122329711914,-0.0006732191541232169,-0.001325878081843257,0.0007893901783972979
18155928.3082006,3.1388089656829834,0.12435857206583023,0.01582758128643036,9.803078651428223,0.0009994878200814128,0.00013594928896054626,-0.0004265341558493674
18155928.3836571,3.1388089656829834,0.1231565847992897,0.00354516482912004,9.797141075134277,-0.000223430703044869,-0.00030696854810230434,-6.004653187119402e-05
18155928.4433453,3.1388089656829834,0.12479348480701447,0.009198574349284172,9.81795597076416,8.353219891432673e-05,-0.0007736037950962782,0.00039611876127310097
18155928.560773,3.1388089656829834,0.1258598417043686,0.004525306634604931,9.795231819152832,-0.0001594005589140579,-0.0003253973845858127,-0.0003179917694069445
18155928.6398424,3.1388089656829834,0.12495216727256775,0.006699197925627232,9.828920364379883,0.00026064697885885835,-0.00012387125752866268,0.0005844566039741039
18155928.7256077,3.1388089656829834,0.12911561131477356,0.006949514150619507,9.826739311218262,-0.0001718056300887838,-8.344224625034258e-06,0.0001926734985318035
18155928.824766,3.1388089656829834,0.12337276339530945,0.012906298041343689,9.768184661865234,-8.636356506031007e-05,0.0005524908774532378,-0.000638954050373286
18155928.8988645,3.1388089656829834,0.12711624801158905,0.007494157645851374,9.843708038330078,-0.00028675998328253627,4.9960108299274e-05,0.0005062721320427954
18155928.9668603,3.1388089656829834,0.12422949075698853,0.008083977736532688,9.814814567565918,0.0005114811938256025,0.00014744400687050074,0.00014603181625716388
18155929.0359507,3.1388089656829834,0.12230551242828369,0.012535356916487217,9.786808967590332,0.00018745966372080147,0.0005528174806386232,0.00019473010615911335
18155929.0924303,3.1388089656829834,0.1267273873090744,0.009656197391450405,9.797475814819336,-0.00019398679432924837,-4.0774484659777954e-05,0.00031408172799274325
18155929.1516638,3.1388089656829834,0.12968264520168304,0.009662656113505363,9.79542064666748,4.9566704547032714e-05,8.505598816554993e-05,-4.784934571944177e-05
18155929.2479771,3.1388089656829834,0.12635104358196259,0.004161541815847158,9.803106307983398,-0.00023044124827720225,-0.00047026609536260366,2.5462522899033502e-05
18155929.3181566,3.1388089656829834,0.12626849114894867,0.010104384273290634,9.848817825317383,0.00020726057118736207,-8.391050505451858e-05,-7.762524182908237e-05
18155929.3789013,3.1388089656829834,0.12397506088018417,0.006556028500199318,9.772041320800781,-0.0001172977063106373,0.00014545462909154594,0.00027814015629701316
18155929.4611906,3.1388089656829834,0.1252102553844452,0.008804398588836193,9.79624080657959,0.00031772174406796694,0.00019193037587683648,5.502626299858093e-05
18155929.5230015,3.1388089656829834,0.12496509402990341,0.008774989284574986,9.84178352355957,0.0004315726400818676,-0.0009103309130296111,0.0005844910047017038
18155929.6075204,3.1388089656829834,0.12856176495552063,0.011351900175213814,9.819889068603516,0.0004954910255037248,-2.3970867914613336e-05,-0.00010819335875567049
18155929.6683424,3.1388089656829834,0.1245383694767952,0.006914010737091303,9.77936840057373,-0.00022696214728057384,-0.0003740518004633486,-8.064453140832484e-05
18155929.7360243,3.1388089656829834,0.12433499842882156,0.009149122051894665,9.844340324401855,-0.00014672767429146916,0.0005794398603029549,-0.00016199938545469195
18155929.8108213,3.1388089656829834,0.12394218891859055,0.0077867587096989155,9.782015800476074,-0.000227540367632173,-0.00039943563751876354,-0.0006518427981063724
18155929.8816842,3.1388089656829834,0.1241651400923729,0.01034494861960411,9.82255744934082,9.945050987880677e-05,8.53881865623407e-05,-8.349394920514897e-05
18155929.9506163,3.1388089656829834,0.12478101253509521,0.01080314815044403,9.810513496398926,8.99606675375253e-05,-0.00029318066663108766,9.656362817622721e-05
18155930.0331072,3.1388089656829834,0.12613755464553833,0.011015592142939568,9.767494201660156,0.00022079698101151735,0.00020154593221377581,0.00025170488515868783
18155930.1007569,3.1388089656829834,0.12600097060203552,0.01139344647526741,9.876245498657227,-0.00025141777587123215,0.00022069003898650408,0.0005692422855645418
18155930.1678704,3.1388089656829834,0.12636427581310272,0.009137757122516632,9.791897773742676,-8.374823664780706e-05,0.000543713744264096,-0.0003578332543838769
18155930.2442276,3.1388089656829834,0.128235325217247,0.01148129627108574,9.769707679748535,0.00034959526965394616,0.0002043190470431,0.00010396055586170405
18155930.3061223,3.1388089656829834,0.12348870187997818,0.011220516636967659,9.818022727966309,-0.000911152979824692,0.0005269726971164346,-0.0002999971038661897
18155930.3779022,3.1388089656829834,0.12637677788734436,0.006156109273433685,9.831143379211426,0.00011728212848538533,-0.0002013963821809739,6.388037581928074e-05
18155930.4513736,3.1388089656829834,0.12813319265842438,0.011995833367109299,9.800196647644043,0.0006411141366697848,0.0005149781936779618,-3.6265701055526733e-05
18155930.5255627,3.1388089656829834,0.12311061471700668,0.013016804121434689,9.807205200195312,0.0002079256810247898,0.0006642305525019765,0.0003181290521752089
18155930.6152118,3.1388089656829834,0.12161274254322052,0.0036662514321506023,9.805907249450684,6.069574737921357e-06,-0.00012129127571824938,0.00013216673687566072
18155930.655417,3.1388089656829834,0.1246807649731636,0.010868776589632034,9.836820602416992,-0.0008140967111103237,-0.000682926969602704,0.00019077931938227266
18155930.7138104,3.1388089656829834,0.12305740267038345,0.00977934617549181,9.764778137207031,3.36711345880758e-05,0.00031481223413720727,0.00018147968512494117
18155930.7891791,3.1388089656829834,0.12632602453231812,0.006618375889956951,9.804032325744629,0.00036644074134528637,0.0001748267823131755,-0.00048610742669552565
18155930.8546716,3.1388089656829834,0.11988330632448196,0.0109253553673625,9.797987937927246,4.0722421545069665e-05,-0.00043817321420647204,0.00015737919602543116
18155930.926387,3.1388089656829834,0.12379516661167145,0.009278940036892891,9.859420776367188,-0.0005638726288452744,-0.0009299604571424425,0.0006800878909416497
18155930.9995973,3.1388089656829834,0.12351083010435104,0.01048715878278017,9.790261268615723,4.037028702441603e-07,-0.00039343576645478606,-0.00025956667377613485
18155931.0733554,3.1388089656829834,0.1224813163280487,0.007238741032779217,9.801833152770996,-0.0005602746969088912,-0.0003218388883396983,-0.0005580994766205549
18155931.1318193,3.1388089656829834,0.12397005409002304,0.007263670675456524,9.809565544128418,8.604623872088268e-05,0.00041782695916481316,0.0006986107327975333
18155931.1942905,3.1388089656829834,0.12702742218971252,0.01165422610938549,9.782726287841797,1.9680377590702847e-05,8.57004924910143e-05,-0.0004914649180136621
18155931.2640864,3.1388089656829834,0.12839703261852264,0.012711405754089355,9.843396186828613,0.000648999644909054,0.0002572096127551049,-0.00047754053957760334
18155931.3044669,3.1388089656829834,0.1276811808347702,0.010009895078837872,9.805344581604004,-0.0003193060983903706,-0.00017745100194588304,-8.042989065870643e-05
18155931.3909199,3.1388089656829834,0.12232423573732376,0.012844575569033623,9.783693313598633,8.103337313514203e-05,0.0002572546654846519,0.0002953595540020615
18155931.4438536,3.1388089656829834,0.12318554520606995,0.009809658862650394,9.830806732177734,1.0197078154305927e-05,-0.00015945330960676074,4.059958519064821e-05
18155931.4873419,3.1388089656829834,0.12886972725391388,0.015088960528373718,9.767266273498535,-0.00014659659063909203,-0.0002775219327304512,-0.00019047643581870943
18155931.5322909,3.1388089656829834,0.1261320561170578,0.003280515316873789,9.798715591430664,0.0007422200287692249,-0.00010503694647923112,0.00040202794480137527
18155931.6237891,3.1388089656829834,0.12204228341579437,0.008519436232745647,9.812993049621582,-1.783869811333716e-05,-0.0003591532586142421,-0.0003013931564055383
18155931.7030269,3.1388089656829834,0.12361330538988113,0.014719810336828232,9.806455612182617,0.000202327108127065,-0.00011686117795761675,0.0004275709798093885
18155931.7667119,3.1388089656829834,0.12662068009376526,0.009963075630366802,9.819291114807129,0.0006206679390743375,-0.0002303278015460819,0.00016314463573507965
18155931.8277778,3.1388089656829834,0.12588731944561005,0.00981284398585558,9.830010414123535,-0.00020413492165971547,-0.00014458788791671395,0.0002403323887847364
18155931.9155872,3.1388089656829834,0.12109009176492691,0.00938393920660019,9.814940452575684,-0.0002766030956991017,-0.0004757812712341547,0.00016288207552861422
18155932.0067374,3.1388089656829834,0.13096483051776886,0.010494190268218517,9.796545028686523,-0.00011423090472817421,0.0004228487960062921,9.201638022204861e-05
18155932.0800565,3.1388089656829834,0.12211516499519348,0.011227015405893326,9.818511962890625,6.775453948648646e-05,-0.0006924929330125451,-0.00025714089861139655
18155932.1284298,3.1388089656829834,0.12486586719751358,0.007128434255719185,9.77219295501709,6.217227200977504e-05,8.380127837881446e-05,0.0003029891522601247
18155932.1856757,3.1388089656829834,0.12767241895198822,0.011039488017559052,9.865459442138672,-2.7846748707816005e-05,-0.00015139469178393483,0.0003639800997916609
18155932.2396474,3.1388089656829834,0.12465979903936386,0.009167122654616833,9.813616752624512,0.0004932130686938763,0.0002896281657740474,3.31155133608263e-05
18155932.2920917,3.1388089656829834,0.11808063089847565,0.014096573926508427,9.802045822143555,-0.0002925764420069754,-0.0003237589553464204,-0.0004428628599271178
18155932.3614463,3.1388089656829834,0.12636499106884003,0.00503368629142642,9.7887544631958,-0.0004128184518776834,0.00047027249820530415,0.0007871462148614228
18155932.4243726,3.1388089656829834,0.1263887584209442,0.006137540563941002,9.780901908874512,0.0003753620549105108,0.0007915697642602026,-0.0002070454938802868
18155932.5674609,3.1388089656829834,0.11748664826154709,0.006202255375683308,9.82382869720459,-0.00025067193200811744,0.00036806397838518023,-0.0006870649522170424
18155932.6360343,3.1388089656829834,0.126956507563591,0.010504152625799179,9.84747314453125,0.0008093896321952343,0.00021486132754944265,6.37909906799905e-05
18155932.7046322,3.1388089656829834,0.12498918920755386,0.01010715588927269,9.783980369567871,0.00029844383243471384,-0.00047751382226124406,-0.00016058787878137082
18155932.7781801,3.1388089656829834,0.1280076652765274,0.01163088995963335,9.782065391540527,-0.00028939798357896507,0.0006518017034977674,0.0003131716512143612
18155932.8414358,3.1388089656829834,0.12462249398231506,0.011789844371378422,9.795001983642578,-0.0005103431176394224,-4.347643698565662e-05,-0.0002091556671075523
18155932.9170757,3.1388089656829834,0.12423837184906006,0.0035855863243341446,9.833534240722656,0.000749619270209223,0.0001597262016730383,0.0002463410492055118
18155932.9170757,3.1388089656829834,0.12820005416870117,0.00561239430680871,9.825838088989258,-0.0007647810271009803,0.00020124042930547148,0.0007996374624781311
18155932.9733481,3.1388089656829834,0.12516851723194122,0.005756311118602753,9.810689926147461,-0.00015236088074743748,-0.0002964569430332631,0.0004208169411867857
18155932.9733481,3.1388089656829834,0.12625858187675476,0.007805716246366501,9.751974105834961,-4.10318752983585e-05,-0.00012000232527498156,-5.268609311315231e-05
18155933.151972,3.1388089656829834,0.12441149353981018,0.010793150402605534,9.870360374450684,-0.00012983393389731646,0.00033451130730099976,-0.00028881223988719285
18155933.151972,3.1388089656829834,0.12438612431287766,0.01461728848516941,9.75883960723877,-0.0007125583360902965,-0.00016046974633354694,-0.0001705732720438391
18155933.2156499,3.1388089656829834,0.12721633911132812,0.0016193990595638752,9.860054969787598,3.83954647986684e-05,0.0002597304410301149,0.00019244581926614046
18155933.2721607,3.1388089656829834,0.12334650754928589,0.011308292858302593,9.735127449035645,-0.00045567285269498825,0.00035090261371806264,0.0006700305384583771
18155933.3219736,3.1388089656829834,0.12058551609516144,0.007763595320284367,9.833732604980469,0.000227070166147314,0.0001040296265273355,6.94697882863693e-05
18155933.3871557,3.1388089656829834,0.1235901489853859,0.008000866509974003,9.825139999389648,-0.000364697421900928,-0.00018625782104209065,0.0006157014868222177
18155933.5241094,3.1388089656829834,0.12094748765230179,0.008314532227814198,9.835291862487793,-0.0007823612540960312,-0.0005120027926750481,-0.0008987537585198879
18155933.5676397,3.1388089656829834,0.12493209540843964,0.013212979771196842,9.790848731994629,-2.3679596779402345e-05,-0.0003818476398009807,0.00022172862372826785
18155933.6227907,3.1388089656829834,0.12489408254623413,0.006625031121075153,9.818422317504883,0.0007508890703320503,-0.0005969551857560873,0.00019364443141967058
18155933.6828119,3.1388089656829834,0.12196297943592072,0.006865131203085184,9.778240203857422,-0.00015114873531274498,0.0001651167985983193,0.00040804321179166436
18155933.7551476,3.1388089656829834,0.1265595257282257,0.01253870315849781,9.820412635803223,5.1132956286892295e-05,4.297143095755018e-05,0.0005333341541700065
18155933.8252495,3.1388089656829834,0.1254342943429947,0.014863993972539902,9.814821243286133,-0.00012382100976537913,-0.00033909385092556477,0.00010291899525327608
18155933.8818667,3.1388089656829834,0.1191176027059555,0.01246652565896511,9.804664611816406,-0.00010640773689374328,-0.0007875165320001543,0.00010514070163480937
18155933.9651616,3.1388089656829834,0.12842175364494324,0.01110059954226017,9.774381637573242,-0.00029390639974735677,-0.00031766327447257936,-0.00047017144970595837
18155934.0528065,3.1388089656829834,0.1253473162651062,0.008565987460315228,9.852288246154785,-3.8103360566310585e-05,0.0002658695157151669,0.00012823485303670168
18155934.1184443,3.1388089656829834,0.11907831579446793,0.008146153762936592,9.77186107635498,0.0007283813320100307,-0.0008696232689544559,0.00039241829654201865
18155934.1783477,3.1388089656829834,0.12496239691972733,0.01917949691414833,9.846531867980957,-0.0005591028602793813,2.7715515898307785e-05,-0.0006349240429699421
18155934.2436749,3.1388089656829834,0.1263708770275116,0.016989625990390778,9.77149772644043,6.785491859773174e-05,-2.945780215668492e-05,0.00017142872093245387
18155934.2931122,3.1388089656829834,0.12548828125,0.009216612204909325,9.816356658935547,0.00019341382721904665,-0.0005510674091055989,0.00024387742450926453
18155934.4103344,3.1388089656829834,0.12306519597768784,0.009730125777423382,9.813078880310059,-0.0002731911954469979,-0.00046226734411902726,-0.00044205112499184906
18155934.4965322,3.1388089656829834,0.13089251518249512,0.013550611212849617,9.834918022155762,0.00028408184880390763,0.00015095152775757015,-0.00045960431452840567
18155934.5862691,3.1388089656829834,0.12651045620441437,0.007478483021259308,9.78403091430664,6.731439498253167e-05,0.000208957091672346,0.0010015427833423018
18155934.6460589,3.1388089656829834,0.12748484313488007,0.009631487540900707,9.803348541259766,-0.00034093233989551663,0.0002345723332837224,0.00010935137106571347
18155934.69898,3.1388089656829834,0.12104694545269012,0.007348558399826288,9.84226131439209,7.542082312284037e-05,6.016241968609393e-06,-0.0001594874483998865
18155934.7727378,3.1388089656829834,0.12617816030979156,0.015526427887380123,9.769954681396484,-0.00011861849634442478,0.0003463591856416315,-1.9791295926552266e-06
18155934.8276936,3.1388089656829834,0.12657079100608826,0.007987732999026775,9.832131385803223,0.00014900058158673346,-0.00037625321419909596,-0.0002538092085160315
18155934.8860166,3.1388089656829834,0.12566335499286652,0.01564299687743187,9.788745880126953,-0.00025869038654491305,-0.00018344499403610826,0.0005634843255393207
18155934.957471,3.1388089656829834,0.12339220196008682,0.014462173916399479,9.82048511505127,-1.966998024727218e-05,0.00017907292931340635,0.0003610198909882456
18155935.0705744,3.1388089656829834,0.12578479945659637,0.006352140102535486,9.797618865966797,0.0003648787969723344,-6.969789683353156e-05,-0.00045360843068920076
18155935.0705744,3.1388089656829834,0.12363899499177933,0.013970544561743736,9.84176254272461,0.0002568322524894029,0.0008779029594734311,0.0001489365822635591
18155935.1240099,3.1388089656829834,0.12447477132081985,0.008353276178240776,9.793578147888184,-0.0004919921047985554,-0.0003127912350464612,-0.0005258048186078668
18155935.209233798,3.1388089656829834,0.1204448789358139,0.0064547923393547535,9.791702270507812,0.00021525668853428215,0.000224187460844405,-2.934623626060784e-05
18155935.2952356,3.1388089656829834,0.1256517767906189,0.007790682837367058,9.808793067932129,-0.00013098506315145642,-0.00018790509784594178,0.0008389755967073143
18155935.3598549,3.1388089656829834,0.12579450011253357,0.013034720905125141,9.784729957580566,8.574012463213876e-05,-2.9778177122352645e-05,0.0002179141010856256
18155935.4357904,3.1388089656829834,0.12399251759052277,0.010920649394392967,9.839388847351074,-7.835696305846795e-05,0.0005595960537903011,-0.00028875836869701743
18155935.4777362,3.1388089656829834,0.1269913613796234,0.0073712351731956005,9.836265563964844,7.508533599320799e-06,-0.0006620764033868909,-0.0004891528515145183
18155935.5275848,3.1388089656829834,0.1243666335940361,0.01119274366647005,9.723036766052246,-0.00022116491163615137,0.00011685664503602311,0.0006993382703512907
18155935.6130341,3.1388089656829834,0.1295575201511383,0.009039068594574928,9.868303298950195,0.00046840551658533514,0.00028627156279981136,0.0006915521225892007
18155935.6680128,3.1388089656829834,0.12329038977622986,0.0075351400300860405,9.804533958435059,0.0002426280261715874,6.749872409272939e-05,-0.0001863525394583121
18155935.7241475,3.1388089656829834,0.12397868931293488,0.007717878557741642,9.795997619628906,-0.0007471996359527111,0.00021151782129891217,0.00022571528097614646
18155935.7804401,3.1388089656829834,0.1274539828300476,0.008828501217067242,9.805371284484863,0.000841987319290638,0.00012198311742395163,0.0007845396758057177
18155935.8711759,3.1388089656829834,0.12628872692584991,0.011696113273501396,9.796123504638672,0.0003753345226868987,0.00016698904801160097,0.00012893675011582673
18155935.931923598,3.1388089656829834,0.12982362508773804,0.007678782567381859,9.815366744995117,-0.0004082222585566342,-7.969675789354369e-05,0.0005565162864513695
18155936.0000457,3.1388089656829834,0.1284058690071106,0.013902491889894009,9.838529586791992,-0.00022129504941403866,-5.057772432337515e-05,-2.0606355974450707e-05
18155936.0446305,3.1388089656829834,0.12927117943763733,0.009771913290023804,9.766134262084961,0.0002805746626108885,2.754262459347956e-05,-0.0002112734946422279
18155936.1055202,3.1388089656829834,0.1281176060438156,0.007962152361869812,9.807025909423828,-0.00027374032652005553,0.0005625694175250828,-0.00015484692994505167
18155936.1812871,3.1388089656829834,0.1320444643497467,0.010210897773504257,9.816657066345215,4.4535590859595686e-05,0.00013218223466537893,-0.0004215397930238396
18155936.2409902,3.1388089656829834,0.1252739578485489,0.008155536837875843,9.819169998168945,-0.00044106843415647745,0.0004674731462728232,-0.00028127655969001353
18155936.300722,3.1388089656829834,0.12121470272541046,0.008593549020588398,9.808314323425293,-0.00021314610785339028,0.0001513842580607161,0.0004169822786934674
18155936.3622934,3.1388089656829834,0.12544719874858856,0.008797824382781982,9.799899101257324,-0.0007548683788627386,-0.0005756865139119327,0.000573431549128145
18155936.42091,3.1388089656829834,0.13089212775230408,0.005798425525426865,9.829667091369629,-0.0002210959792137146,0.0010990557493641973,0.00014139477571006864
18155936.509006,3.1388089656829834,0.12460623681545258,0.010584300383925438,9.800046920776367,2.0733741621370427e-05,7.587495929328725e-05,0.0004723715246655047
18155936.6124509,3.1388089656829834,0.12829580903053284,0.01055713277310133,9.786802291870117,0.0005266034277155995,0.0002730870619416237,0.00017509132158011198
18155936.6693252,3.1388089656829834,0.128074511885643,0.011672312393784523,9.862271308898926,0.00015110874664969742,-0.0004790949751622975,0.0009010182111524045
18155936.7169382,3.1388089656829834,0.12561744451522827,0.010657318867743015,9.746973991394043,6.425756146200001e-05,-0.00010307805496267974,0.00033186457585543394
18155936.7906012,3.1388089656829834,0.1255827248096466,0.012384881265461445,9.837265968322754,1.966432319022715e-05,0.00013183598639443517,0.00021669227862730622
18155936.8732239,3.1388089656829834,0.12341262400150299,0.005551237612962723,9.780961990356445,-0.0007995086489245296,0.0013194550992920995,0.0005500256665982306
18155936.9191749,3.1388089656829834,0.12257005274295807,0.004685611929744482,9.849372863769531,7.037352042971179e-05,-0.0004898412735201418,-0.00016112315643113106
18155937.0107466,3.1388089656829834,0.12809336185455322,0.010204377584159374,9.80211067199707,0.00038975285133346915,-0.0003311604377813637,-0.00026959783281199634
18155937.067541,3.1388089656829834,0.12600348889827728,0.010681421495974064,9.820794105529785,-0.0006875655381008983,-0.0004085023538209498,0.0003791918861679733
18155937.1403574,3.1388089656829834,0.12655918300151825,0.009303289465606213,9.791402816772461,0.0008951261406764388,-6.185808160807937e-05,0.0004892065189778805
18155937.193323,3.1388089656829834,0.12775304913520813,0.008502569049596786,9.829384803771973,-2.429553569527343e-05,-0.00010406534420326352,0.00012015313404845074
18155937.2542847,3.1388089656829834,0.12461391091346741,0.01144759077578783,9.757040977478027,-0.0009837524266913533,-0.0004139405791647732,0.00035618001129478216
18155937.3187696,3.1388089656829834,0.12889504432678223,0.0056278095580637455,9.80826473236084,5.8514120610198006e-05,-0.00020630097424145788,-0.00041578870150260627
18155937.3975542,3.1388089656829834,0.12431879341602325,0.007547618355602026,9.827914237976074,0.000919312471523881,-0.0004184364515822381,-0.0002128564374288544
18155937.4744718,3.1388089656829834,0.12242748588323593,0.010404733940958977,9.813966751098633,-0.0005757383187301457,-0.00044888784759677947,-0.00026640662690624595
18155937.5229708,3.1388089656829834,0.12678614258766174,0.010825473815202713,9.783527374267578,-8.953662472777069e-05,-4.15175236412324e-06,0.0007147317519411445
18155937.6094217,3.1388089656829834,0.1275573968887329,0.008730913512408733,9.84131908416748,1.635476110095624e-05,6.900975131429732e-05,-9.845594468060881e-05
18155937.6677811,3.1388089656829834,0.12167982757091522,0.009041226468980312,9.791430473327637,-0.0002474270004313439,-0.00011963057477260008,0.0001380722678732127
18155937.7089099,3.1388089656829834,0.1253429651260376,0.008641335181891918,9.820860862731934,0.0008339360356330872,0.00011915748473256826,-0.0003963001654483378
18155937.8017164,3.1388089656829834,0.12477227300405502,0.0042192074470222,9.770411491394043,0.0002006891736527905,-0.00040657486533746123,0.00025855100830085576
18155937.861039698,3.1388089656829834,0.1280585676431656,0.010751845315098763,9.825806617736816,0.0003460467851255089,-0.00024009340268094093,0.00014058497617952526
18155937.9184061,3.1388089656829834,0.1237606331706047,0.010590309277176857,9.817525863647461,0.0006954458076506853,2.3426522602676414e-05,9.691822197055444e-05
18155937.979045,3.1388089656829834,0.12565000355243683,0.011433960869908333,9.79156494140625,-0.00023149143089540303,-0.0006815611850470304,-6.4241758082062e-05
18155938.0277465,3.1388089656829834,0.12780438363552094,0.010183267295360565,9.788636207580566,0.00020971840422134846,-6.543453491758555e-05,-0.0002719517215155065
18155938.0824186,3.1388089656829834,0.12923704087734222,0.009004008956253529,9.878782272338867,2.6199515559710562e-05,-0.00043068005470559,4.013900615973398e-05
18155938.1390547,3.1388089656829834,0.12484575808048248,0.014835840091109276,9.785390853881836,0.00014493725029751658,0.0008478582603856921,-0.0003703794500324875
18155938.2085863,3.1388089656829834,0.12286123633384705,0.005722802598029375,9.806514739990234,9.364743891637772e-05,-0.00013463973300531507,0.0009213692392222583
18155938.2728357,3.1388089656829834,0.12082371115684509,0.010302511043846607,9.773621559143066,-0.0010404401691630483,-6.547039811266586e-05,-0.0003730822936631739
18155938.334951,3.1388089656829834,0.12297151237726212,0.009723566472530365,9.838571548461914,0.0001548854197608307,-0.000360381614882499,-0.0004508564015850425
18155938.4113347,3.1388089656829834,0.12219495326280594,0.011756494641304016,9.817983627319336,0.0007881480851210654,-0.0005662463954649866,0.0004085174296051264
18155938.470963098,3.1388089656829834,0.1281697005033493,0.004015382379293442,9.816488265991211,-0.0001554380141897127,-6.221699004527181e-05,-0.0006146571249701083
18155938.470963098,3.1388089656829834,0.12813706696033478,0.012310286983847618,9.807509422302246,0.0003055246197618544,7.433968130499125e-05,-0.0007393552805297077
18155938.470963098,3.1388089656829834,0.12577398121356964,0.0076208412647247314,9.80330753326416,0.0007364339544437826,0.00022607744904235005,9.133529238170013e-05
18155938.470963098,3.1388089656829834,0.12901358306407928,0.010930162854492664,9.819494247436523,0.0007210829644463956,-0.00040494839777238667,-0.00019400187011342496
18155938.470963098,3.1388089656829834,0.12747392058372498,0.00045496923848986626,9.829800605773926,-0.0007187489536590874,-0.00017793040024116635,-0.000666097505018115
18155938.470963098,3.1388089656829834,0.12356789410114288,0.008372032083570957,9.732177734375,1.0147956345463172e-05,-0.0006196069298312068,-0.00012082517059752718
18155938.5302665,3.1388089656829834,0.12368945777416229,0.010369978845119476,9.816034317016602,-0.0008200580487027764,-0.00033877522218972445,0.00012543812044896185
18155938.6046754,3.1388089656829834,0.12213102728128433,0.014047120697796345,9.850461959838867,0.0007608214509673417,-0.000504234223626554,-6.692214810755104e-05
18155938.6607727,3.1388089656829834,0.12521623075008392,0.010502345860004425,9.789850234985352,0.0006710727466270328,-0.00040860872832126915,0.0006335669313557446
18155938.6992856,3.1388089656829834,0.12189136445522308,0.011053942143917084,9.789338111877441,-0.00016328801575582474,-0.00021365932479966432,-0.00017357133037876338
18155938.7621498,3.1388089656829834,0.12307973206043243,0.009043572470545769,9.779520988464355,-0.0004982574610039592,0.0008543996373191476,5.6239172408822924e-05
18155938.8733697,3.1388089656829834,0.12372428178787231,0.007757958956062794,9.813828468322754,-1.0449108231114224e-05,0.0005268036620691419,0.00024001067504286766
18155938.9453056,3.1388089656829834,0.11950305104255676,0.014047177508473396,9.821354866027832,-0.00032098242081701756,-0.000307121139485389,-0.0005306940292939544
18155939.0022411,3.1388089656829834,0.12589161098003387,0.008686399087309837,9.871809005737305,-0.00012868882913608104,-0.00020798059995286167,-0.0002843901456799358
18155939.4473448,3.1388089656829834,0.12504011392593384,0.004323345609009266,9.749178886413574,-0.00023953564232215285,0.00011119701957795769,2.184733602916822e-05
18155939.5236454,3.1388089656829834,0.12528643012046814,0.007805242203176022,9.800688743591309,0.00032637198455631733,0.0006026958581060171,0.00018302604439668357
18155939.5945404,3.1388089656829834,0.12697574496269226,0.013533098623156548,9.827047348022461,-3.5689117794390768e-06,-0.0002461821131873876,-0.0006705959094688296
18155939.6566997,3.1388089656829834,0.1296483278274536,0.01002863422036171,9.777860641479492,-0.0005127897020429373,0.0005738663603551686,-7.599648961331695e-05
18155939.7131166,3.1388089656829834,0.1250813901424408,0.013502719812095165,9.845152854919434,0.0007148653967306018,-9.33338378672488e-05,-3.308835584903136e-05
18155939.7696305,3.1388089656829834,0.12424681335687637,0.012666845694184303,9.796305656433105,6.936155841685832e-05,-0.0003653740859590471,0.0003038783324882388
18155939.8465716,3.1388089656829834,0.11889773607254028,0.008151144720613956,9.788037300109863,-0.00010008236858993769,-0.0002595835831016302,0.0001332927931798622
18155939.9022654,3.1388089656829834,0.1256769448518753,0.009255585260689259,9.84539794921875,-0.0011816879268735647,0.0004769685328938067,0.00033395271748304367
18155939.9468088,3.1388089656829834,0.12274276465177536,0.015076622366905212,9.774721145629883,-8.647621143609285e-05,-0.0002722497738432139,0.00037138350307941437
18155940.009163,3.1388089656829834,0.1222621276974678,0.004770088009536266,9.79699420928955,-0.00014082848792895675,0.000468866724986583,9.257711644750088e-05
18155940.0722125,3.1388089656829834,0.12200960516929626,0.00996385421603918,9.813640594482422,-9.79384349193424e-05,0.0002058679237961769,-0.0007336580893024802
18155940.1320265,3.1388089656829834,0.12350292503833771,0.010595433413982391,9.831587791442871,-0.0006344320718199015,-0.00029437188641168177,-2.7068228519055992e-05
18155940.1934383,3.1388089656829834,0.12582868337631226,0.0076206400990486145,9.795851707458496,-0.0002082452119793743,0.0008560395799577236,0.0001239126140717417
18155940.2730291,3.1388089656829834,0.12027391791343689,0.013843206688761711,9.803828239440918,0.00019723110017366707,0.0008629707735963166,0.00014105020090937614
18155940.3305935,3.1388089656829834,0.1270945519208908,0.011762615293264389,9.84457778930664,-0.0002702778729144484,0.0005490884650498629,0.0006355515797622502
18155940.3898626,3.1388089656829834,0.12302964925765991,0.0060465894639492035,9.786090850830078,0.0003105622308794409,-0.00042563959141261876,2.76818191196071e-05
18155940.4324667,3.1388089656829834,0.12715435028076172,0.009892378002405167,9.81922721862793,0.0004217423847876489,0.00010545601980993524,-9.497966675553471e-05
18155940.4835355,3.1388089656829834,0.12444765120744705,0.004453803412616253,9.829949378967285,0.00015151419211179018,0.0003138772153761238,0.0003532870614435524
18155940.5729062,3.1388089656829834,0.12529949843883514,0.012065306305885315,9.763835906982422,0.0006788711762055755,0.00015456450637429953,0.00022845204512123019
18155940.6336284,3.1388089656829834,0.12798719108104706,0.012591114267706871,9.814493179321289,0.0011715646833181381,0.0004194763314444572,0.000281137676211074
18155940.7245861,3.1388089656829834,0.12781162559986115,0.009479080326855183,9.814308166503906,0.00022065863595344126,2.2496369638247415e-05,-8.57174745760858e-06
18155940.8239874,3.1388089656829834,0.12306515872478485,0.011586746200919151,9.798705101013184,-6.866945477668196e-05,7.643706339877099e-05,0.000285929418168962
18155940.8845392,3.1388089656829834,0.12464214861392975,0.013740213587880135,9.843032836914062,-0.00022849759261589497,9.570156544214115e-05,6.204627425177023e-05
18155940.9482878,3.1388089656829834,0.1281970888376236,0.011726763099431992,9.78455638885498,-0.00042240842594765127,0.00017962962738238275,0.000932689756155014
18155941.0367334,3.1388089656829834,0.12664127349853516,0.011656560935080051,9.822938919067383,-0.00038575049256905913,-0.0002001686953008175,-0.0005399254150688648
18155941.0977311,3.1388089656829834,0.12846580147743225,0.00915318913757801,9.793282508850098,-0.00016740954015403986,-0.0005206174682825804,0.0002699417236726731
18155941.1645575,3.1388089656829834,0.12314193695783615,0.013488143682479858,9.840662002563477,-0.00023436428455170244,-0.00035101757384836674,-0.000454375782283023
18155941.2560675,3.1388089656829834,0.1236339882016182,0.01222051028162241,9.769598960876465,0.00017071700131054968,0.00048166728811338544,-0.0005312933353707194
18155941.3295719,3.1388089656829834,0.12801174819469452,0.006048904731869698,9.823954582214355,0.00043247832218185067,0.0005894163623452187,0.0004535791522357613
18155941.390297398,3.1388089656829834,0.12425465881824493,0.012532989494502544,9.800063133239746,0.0007726628100499511,0.0003026325430255383,-0.00030170491663739085
18155941.4336466,3.1388089656829834,0.12938478589057922,0.007384881377220154,9.83304500579834,0.0007994546904228628,0.0002314317534910515,-0.00024076123372651637
18155941.4956964,3.1388089656829834,0.12374792993068695,0.009749853983521461,9.780704498291016,-0.000155844769324176,0.0002070315385935828,0.0005200706073082983
18155941.5665711,3.1388089656829834,0.1253679245710373,0.013842999935150146,9.838480949401855,-5.136604158906266e-06,0.0006453843088820577,-5.923731077928096e-05
18155941.6611142,3.1388089656829834,0.12275481969118118,0.007379613351076841,9.7837553024292,5.9927075199084356e-05,3.4216900530736893e-05,-0.00048243950004689395
18155941.7215155,3.1388089656829834,0.1270221471786499,0.008812043815851212,9.83101749420166,-0.00017563943401910365,-0.000497303029987961,-7.550423470092937e-05
18155941.7809049,3.1388089656829834,0.1228054016828537,0.01377944741398096,9.807802200317383,-0.0003428452182561159,7.996248314157128e-05,0.0006781555130146444
18155941.8459928,3.1388089656829834,0.12699230015277863,0.007449266966432333,9.77811336517334,-0.00020105621661059558,-0.00021955024567432702,-0.0006162500940263271
18155941.8945789,3.1388089656829834,0.11917116492986679,0.011911986395716667,9.82703685760498,5.407251592259854e-05,-0.00023990315094124526,-0.0005102881696075201
18155942.0008545,3.1388089656829834,0.12591470777988434,0.008644971065223217,9.811334609985352,-0.00023054250050336123,0.0002878405211959034,0.00023357017198577523
18155942.052547,3.1388089656829834,0.12417703866958618,0.011581680737435818,9.868586540222168,-7.313557580346242e-05,0.00015901312872301787,0.00027871003840118647
18155942.1136849,3.1388089656829834,0.12440492957830429,0.007138310000300407,9.727579116821289,-0.00032475299667567015,0.0003927801735699177,0.00029333672136999667
18155942.1808319,3.1388089656829834,0.1271391212940216,0.007896622642874718,9.842723846435547,0.00014588332851417363,0.0009403814910911024,-0.00022832740796729922
18155942.2430836,3.1388089656829834,0.1244201511144638,0.010805485770106316,9.760851860046387,0.00040750004700385034,0.00024816844961605966,0.00035991056938655674
18155942.3693016,3.1388089656829834,0.12454036623239517,0.007978592067956924,9.81134033203125,-0.00016740876890253276,0.00036103418096899986,-0.0005639194278046489
18155942.4419921,3.1388089656829834,0.12290920317173004,0.009366652928292751,9.841317176818848,-0.0002969708002638072,-0.0006521926843561232,-0.00030219185282476246
18155942.5167389,3.1388089656829834,0.12528520822525024,0.005335416179150343,9.78577709197998,-5.024339770898223e-05,0.0005598444258794188,-0.0009246290428563952
18155942.5762261,3.1388089656829834,0.1267850548028946,0.0072700828313827515,9.80461311340332,6.64439212414436e-05,0.00038206344470381737,-0.0002940429840236902
18155942.6374797,3.1388089656829834,0.12512922286987305,0.0028517702594399452,9.795503616333008,0.0003334337961860001,6.884718459332362e-06,0.00018782730330713093
18155942.7077883,3.1388089656829834,0.12797552347183228,0.010196540504693985,9.834683418273926,-0.0006642278749495745,-0.00019137088384013623,0.00046539734466932714
18155942.7699682,3.1388089656829834,0.12566782534122467,0.010036802850663662,9.775267601013184,-6.984786159591749e-05,-0.0002416210190858692,0.0002876546641346067
18155942.8284866,3.1388089656829834,0.12607888877391815,0.005106097087264061,9.832918167114258,0.0007538747740909457,0.000338453653967008,-0.0001962010283023119
18155942.8910371,3.1388089656829834,0.12470152229070663,0.01331344060599804,9.786251068115234,0.00020929916354361922,-0.0005269785178825259,0.0006143917562440038
18155942.9476996,3.1388089656829834,0.12718333303928375,0.019091233611106873,9.84664249420166,-0.0007262688595801592,-0.00019380441517569125,0.0002484883589204401
18155943.0243802,3.1388089656829834,0.12247546017169952,0.004490889608860016,9.781176567077637,0.00013356548151932657,-0.0002119411074090749,-0.0005984753952361643
18155943.1177595,3.1387877464294434,0.2415395826101303,0.01007154956459999,9.806523323059082,-0.0029860911890864372,-0.0007745287148281932,0.00036252336576581
18155943.1774676,3.1388089656829834,0.8475107550621033,0.014238569885492325,9.792786598205566,0.0035075899213552475,3.288314837845974e-05,0.0005766336107626557
18155943.2372502,3.1389858722686768,1.759763240814209,-0.01451257523149252,9.747276306152344,0.012730930931866169,0.00046838383423164487,0.00021299696527421474
18155943.2788408,3.1394364833831787,2.22245717048645,-0.10314489901065826,9.80202579498291,0.010281529277563095,0.0002923058345913887,0.014428486116230488
18155943.3587064,3.1406161785125732,1.959405541419983,-0.008305764757096767,9.761759757995605,0.009703020565211773,0.000715820409823209,0.015302367508411407
18155943.447854,3.1415927410125732,2.3192501068115234,0.034503672271966934,9.816582679748535,0.010202891193330288,0.0003320312243886292,0.010416032746434212
18155943.5106506,3.1415927410125732,2.4156930446624756,0.09344608336687088,9.783995628356934,0.012300459668040276,-9.744429553393275e-05,-0.010683346539735794
18155943.648546,nan,-0.011154178529977798,0.02818957343697548,9.814640998840332,0.012636842206120491,-0.0006692910683341324,-0.0027870265766978264
18155943.7175273,3.1415927410125732,5.955569744110107,0.0006779814139008522,9.751669883728027,0.014597698114812374,0.0007091428269632161,0.00017141533317044377
18155943.8041379,3.141247272491455,3.6801109313964844,0.001113319769501686,9.780759811401367,0.00719447573646903,5.6104912800947204e-05,-0.0009105634526349604
18155943.885176,3.141247272491455,3.1139769554138184,0.009056410752236843,9.800532341003418,0.0029343031346797943,-0.00038432609289884567,0.0007627876475453377
18155943.9427715,3.1411044597625732,2.797297716140747,0.01415731105953455,9.860071182250977,0.00038137100636959076,-0.0001994328631553799,-7.475644088117406e-05
18155944.0212638,3.141247272491455,2.37404465675354,0.0007459180196747184,9.788907051086426,-0.0067084114998579025,-0.0009355167276225984,0.0007266183383762836
18155944.0665412,3.141247272491455,1.245295763015747,0.010171360336244106,9.875696182250977,-0.01209146436303854,-0.0009075686102733016,-6.222930096555501e-05
18155944.1576565,3.1415927410125732,0.8239043951034546,0.001734273275360465,9.824512481689453,-0.012710049748420715,-0.002148086903616786,0.0003873886016663164
18155944.2150354,3.1415927410125732,1.4167554378509521,0.004857517313212156,9.780186653137207,-0.007516044192016125,-0.0017077605007216334,0.00023118499666452408
18155944.2852711,3.141247272491455,2.0001044273376465,0.0037862607277929783,9.744845390319824,-0.002664645668119192,-0.0019619504455477,-0.0005042208358645439
18155944.3372531,3.1415927410125732,2.24013090133667,0.007664494216442108,9.769475936889648,-0.00043560817721299827,-0.0013771394733339548,-0.00045805014087818563
18155944.4103575,3.1415927410125732,2.3753151893615723,0.0066407471895217896,9.725996971130371,0.0013933844165876508,-0.000984349986538291,0.0001840444456320256
18155944.5413597,3.1415927410125732,-4.6984710693359375,0.004518888425081968,9.83287525177002,0.0021474792156368494,0.0006557363085448742,-0.000125965554616414
18155944.5997088,3.1415927410125732,9.398459434509277,0.0021247989498078823,9.774251937866211,0.001394689199514687,-6.245467375265434e-06,0.00026839965721592307
18155944.6711934,3.1415927410125732,2.4592037200927734,0.0023979798424988985,9.788171768188477,0.0008352603763341904,-0.00010267955076415092,-0.00034978718031197786
18155944.7509536,3.1415927410125732,2.4640707969665527,0.0013134843902662396,9.735209465026855,-0.0020591921638697386,-0.0020413328893482685,0.00011574194650165737
18155944.8249955,3.1415927410125732,1.6924339532852173,-0.004422684200108051,9.818852424621582,-0.015969300642609596,-0.0030414345674216747,0.00010122430103365332
18155944.8758195,3.141247272491455,-0.40788939595222473,0.019888103008270264,9.881061553955078,-0.02266559563577175,-0.0023712257388979197,-0.00012812692148145288
18155944.9780265,3.141247272491455,-0.5450487732887268,0.0021653613075613976,9.71316146850586,-0.018752604722976685,-5.4594522225670516e-05,-0.00029156796517781913
18155945.0429904,3.141247272491455,2.1139156818389893,-0.002891457173973322,9.766019821166992,-0.012388420291244984,0.00033120368607342243,-0.0006394482916221023
18155945.1212421,3.141247272491455,1.800427794456482,0.003243570914492011,9.769546508789062,-0.007788175716996193,-0.00015545077621936798,0.0006100169848650694
18155945.2082879,3.141247272491455,2.0373787879943848,-0.00525985611602664,9.782280921936035,-0.00494492519646883,0.0010273942025378346,-0.0005806631525047123
18155945.2729397,3.1415927410125732,2.197901725769043,0.002050837269052863,9.75414752960205,-0.0048688375391066074,0.0012192658614367247,0.0003115875297226012
18155945.3320009,3.1415927410125732,1.649052381515503,-0.0004980195662938058,9.868183135986328,-0.010173788294196129,0.0008797956979833543,8.319856715388596e-05
18155945.4015295,3.1415927410125732,0.2794591784477234,-0.0051625510677695274,9.880607604980469,-0.014218385331332684,0.0015053761890158057,9.115751890931278e-05
18155945.4789126,3.1415927410125732,0.8347232937812805,-0.0036345438566058874,9.773727416992188,-0.011724112555384636,6.471885717473924e-05,-0.0006016867700964212
18155945.5386954,3.1415927410125732,1.4139996767044067,-0.00709215784445405,9.754283905029297,-0.0053675067611038685,-0.0013949389103800058,-0.0002936359669547528
18155945.5822681,3.1415927410125732,1.7283862829208374,-0.009183559566736221,9.693641662597656,-0.0006169817643240094,-0.001537631032988429,-0.000592022726777941
18155945.6396235,3.141247272491455,1.991992473602295,0.03129364177584648,9.70612621307373,0.005584001541137695,0.0020330892875790596,-0.00034016260178759694
18155945.6831322,3.1415927410125732,2.0147972106933594,0.0020865239202976227,9.740813255310059,0.0076319631189107895,0.0032835628371685743,-0.0004973853356204927
18155945.7605729,3.1415927410125732,2.127140760421753,0.0019561585504561663,9.763654708862305,0.0090837636962533,0.006185329984873533,-0.00021880035637877882
18155945.8140878,3.1415927410125732,2.097395658493042,0.0016675788210704923,9.844318389892578,0.008629153482615948,0.007796387188136578,-0.0006295410566963255
18155945.8752426,3.141247272491455,2.23414945602417,-0.007978805340826511,9.773478507995605,0.010441754013299942,0.0044752671383321285,-0.000425979815190658
18155945.9456458,3.141247272491455,2.18031907081604,0.01893402822315693,9.954574584960938,0.009540757164359093,0.0033979841973632574,-0.0006473634857684374
18155946.0241994,3.1411044597625732,1.573390245437622,0.004335879348218441,9.7843017578125,-0.0024150037206709385,0.0005314524751156569,0.0004488760023377836
18155946.0850267,3.141247272491455,-0.7944788932800293,0.016223495826125145,9.91700553894043,-0.00964826438575983,0.0006123677012510598,-0.0004922655643895268
18155946.1424017,3.141247272491455,-0.5731589794158936,0.0216724444180727,9.819750785827637,-0.008757864125072956,0.00019379652803763747,-0.0009647504193708301
18155946.217764,3.141247272491455,-0.5664824843406677,0.017391027882695198,9.803853034973145,-0.00918103288859129,0.00021410989575088024,-0.0004647679743357003
18155946.2572724,3.141247272491455,-0.364025741815567,0.019016144797205925,9.812822341918945,-0.005050152074545622,0.0006561808986589313,0.0001876535825431347
18155946.301067,3.141247272491455,-0.1993076503276825,0.008533556014299393,9.800370216369629,-0.006056314799934626,0.0023183219600468874,-0.0008566065807826817
18155946.3881528,3.1411044597625732,-0.3356279730796814,-0.004748339299112558,9.761003494262695,-0.006155946757644415,-0.002765823621302843,-0.0009119972819462419
18155946.4787107,3.1411044597625732,-0.12779538333415985,0.01387307234108448,9.758054733276367,-0.004060280509293079,-0.00513781001791358,0.0004964238032698631
18155946.5376878,3.1409945487976074,0.30974307656288147,0.027993561699986458,9.81334400177002,-0.005607513710856438,-0.002046836307272315,0.000270661199465394
18155946.6088172,3.1411044597625732,0.1493767648935318,0.007692799903452396,9.779956817626953,-0.005491906777024269,-0.00164895283523947,0.0002825806732289493
18155946.6802456,3.1411044597625732,-0.04231000691652298,0.005048980936408043,9.814465522766113,-0.008651957847177982,-0.0008862615213729441,-0.002681309124454856
18155946.7190156,3.1411044597625732,-0.4560275673866272,-0.01535998284816742,9.742331504821777,-0.008719708770513535,5.131868238095194e-05,-0.00033266519312746823
18155946.778423,3.1411044597625732,-0.5950872302055359,0.016079682856798172,9.795825958251953,-0.010726659558713436,0.0004112196038477123,-0.00034461880568414927
18155946.8222209,3.1411044597625732,-0.7554830312728882,0.010794086381793022,9.89761734008789,-0.010997404344379902,4.488801278057508e-05,0.0006963963387534022
18155946.882175,3.1411044597625732,-0.7546663880348206,0.006196420639753342,9.825850486755371,-0.01046181283891201,6.124148785602301e-05,0.0005758859333582222
18155946.9883716,3.1411044597625732,-3.97790265083313,-0.0008626817725598812,9.775910377502441,-0.005726833827793598,-0.003565950784832239,0.00018328572332393378
18155947.0510823,3.1411044597625732,2.8123836517333984,0.004234137013554573,9.807836532592773,-0.004442604724317789,-0.003276998410001397,-8.777040056884289e-05
18155947.1273577,3.1411044597625732,-0.5160672664642334,0.006251095794141293,9.769161224365234,-0.0017016588244587183,-0.002247503260150552,0.000138337432872504
18155947.2411847,3.1409945487976074,-6.421228408813477,0.001524925115518272,9.759905815124512,0.0003990821132902056,-0.000717848539352417,-0.0002720227639656514
18155947.3165856,3.1409945487976074,5.581169128417969,-0.005810711532831192,9.823122024536133,0.0015809985343366861,0.0005671029794029891,-0.0004486856050789356
18155947.3763009,3.140902042388916,-0.45310986042022705,0.0018726270645856857,9.791203498840332,0.0005268845125101507,-0.0004774336121045053,-0.0005120238638482988
18155947.4515245,3.1408205032348633,-0.29108962416648865,-0.013128160499036312,9.792932510375977,0.002593675162643194,0.0006697401986457407,-0.0010512825101613998
18155947.5055622,3.140902042388916,0.27450382709503174,-0.0023446744307875633,9.808924674987793,0.005164320580661297,0.000662274076603353,-0.00045922305434942245
18155947.571492,3.140746831893921,0.4826282262802124,0.001694396836683154,9.72612190246582,0.005913385655730963,0.00015603101928718388,-0.0006502419710159302
18155947.6593963,3.140746831893921,0.362947553396225,-0.0007853542338125408,9.858101844787598,0.004141665995121002,3.9739199564792216e-05,-0.0004360260791145265
18155947.7077562,3.140679121017456,0.36092761158943176,0.00026861950755119324,9.788548469543457,0.0033877971582114697,9.72159905359149e-05,-0.0002936638775281608
18155947.7927948,3.140746831893921,0.3075462877750397,0.0016699433326721191,9.856315612792969,0.002392979571595788,-0.00045569060603156686,-6.317044608294964e-06
18155947.8313326,3.140679121017456,0.3207809031009674,0.0010454708244651556,9.825509071350098,0.0021980421151965857,-2.1072206436656415e-05,-0.001138624968007207
18155947.895291,3.1406161785125732,0.29835182428359985,-0.002983137033879757,9.734857559204102,0.0010050211567431688,0.00026501616230234504,-0.0005606060149148107
18155947.9528374,3.140556812286377,0.30039191246032715,-0.009251445531845093,9.868019104003906,0.001647429191507399,0.00010807098442455754,-0.0006171801942400634
18155948.0069783,3.1406161785125732,0.3088364899158478,0.003941826988011599,9.823615074157715,0.0007758760475553572,-0.00010070308053400367,8.069613249972463e-05
18155948.0970503,3.140556812286377,0.310121089220047,-0.0028941030614078045,9.772608757019043,-0.000747501093428582,-0.0004657076206058264,0.00010038580512627959
18155948.1551309,3.1404476165771484,0.2867349684238434,0.003649551887065172,9.780325889587402,-0.0027839462272822857,-0.00021781332907266915,-0.0003242367529310286
18155948.2285859,3.1404476165771484,0.3178067207336426,-0.002364414045587182,9.780904769897461,-0.0036047270987182856,-0.00046303204726427794,-0.0002579213760327548
18155948.2689633,3.1404476165771484,0.4002876877784729,-0.0007586443098261952,9.820595741271973,-0.004146084189414978,-0.0002261241024825722,-0.0007185544236563146
18155948.3471797,3.1403965950012207,0.15630464255809784,-0.004343452863395214,9.767313957214355,-0.005568448454141617,0.00020527158631011844,0.000536166422534734
18155948.4029645,3.140347719192505,0.1024145856499672,-0.002509850077331066,9.85921573638916,-0.005053354427218437,-0.00017683819169178605,-0.00048634581617079675
18155948.4943641,3.1402554512023926,0.15055817365646362,-0.006045044399797916,9.781617164611816,-0.004731884691864252,-0.0006548743695020676,-0.0007774223340675235
18155948.5515549,3.1402554512023926,0.09994493424892426,-0.005604810081422329,9.82839584350586,-0.004307445604354143,-7.117646600818262e-05,-0.00031776129617355764
18155948.6393772,3.140169143676758,0.13985773921012878,0.0011865637497976422,9.80185317993164,-0.0054328530095517635,7.54667489673011e-05,-0.0009457754204049706
18155948.7155488,3.1401278972625732,0.1177925392985344,-0.006008940748870373,9.793160438537598,-0.0033850595355033875,-5.722275818698108e-05,-0.0006599299376830459
18155948.7828136,3.1400485038757324,0.13561749458312988,0.008345027454197407,9.808445930480957,0.0004174743080511689,0.0027149866800755262,-0.0008737570606172085
18155948.8204774,3.1400485038757324,0.11678073555231094,-0.024718035012483597,9.82089900970459,0.0011738042812794447,0.0012082250323146582,-0.0009466569172218442
18155948.8773128,3.140010356903076,-0.00045677111484110355,-0.010859150439500809,9.779436111450195,0.002224573865532875,0.0009295612690038979,-0.0005940533010289073
18155948.9483635,3.139936923980713,-0.3658408224582672,0.0032930781599134207,9.841962814331055,0.0012330642202869058,0.0003418370906729251,-0.0003205819521099329
18155949.006043598,3.1399011611938477,-0.3364056646823883,-0.0036910041235387325,9.816291809082031,0.0016733378870412707,-9.229517308995128e-05,-0.0004301157605368644
18155949.070507,3.139866352081299,-0.281160444021225,0.009672165848314762,9.783149719238281,0.0022679336834698915,0.00041329365922138095,-0.0008564107702113688
18155949.122873,3.139798641204834,-0.23612834513187408,-0.005786928813904524,9.883848190307617,0.002491358434781432,7.60621260269545e-05,-0.0005836326163262129
18155949.2117154,3.13973331451416,-0.1886938512325287,-0.0005443429108709097,9.762600898742676,0.003565361490473151,0.000398689997382462,-0.0008295946172438562
18155949.2716008,3.1397016048431396,-0.18527065217494965,-0.008778371848165989,9.804634094238281,0.003934868611395359,0.00046361639397218823,-0.0009565048385411501
18155949.3304074,3.1396703720092773,-0.14223487675189972,0.0039927177131175995,9.816502571105957,0.0038252840749919415,0.0007596276700496674,-0.00019709492335096002
18155949.4037874,3.1396396160125732,-0.13861790299415588,0.003578571369871497,9.82204532623291,0.0020485552959144115,0.0008868505829013884,-0.00029929858283139765
18155949.4585062,3.139549970626831,-0.145126074552536,-0.0003711035242304206,9.859039306640625,0.0020736539736390114,0.0011576928663998842,-0.00013360660523176193
18155949.5141449,3.1395211219787598,0.030247509479522705,-0.00872792024165392,9.815442085266113,0.0011164292227476835,0.0003105948562733829,-0.0011184795293956995
18155949.5515543,3.1395211219787598,0.19903482496738434,-0.002114627743139863,9.841582298278809,0.00242669228464365,0.0004729059000965208,-0.001275662682019174
18155949.6316151,3.1394643783569336,0.2782483994960785,0.011143293231725693,9.736425399780273,0.0025808075442910194,-0.0003520456957630813,-0.0007973607280291617
18155949.7577361,3.139355182647705,-9.324380874633789,0.0003924379125237465,9.850944519042969,0.0011184634640812874,-0.00038434972520917654,-0.0005046703736297786
18155949.9003435,3.1393024921417236,-3.1031932830810547,0.00484001450240612,9.829184532165527,0.0011360434582456946,-0.0005440078675746918,-0.0011261693434789777
18155949.9989615,3.1392509937286377,12.001041412353516,0.0013109601568430662,9.782639503479004,3.19799582939595e-05,-0.00045888483873568475,-0.0005133620579726994
18155950.0430513,3.1392006874084473,0.15741124749183655,-0.003824083134531975,9.838696479797363,0.00020531888003461063,9.11297247512266e-05,-0.0008022816036827862
18155950.168334,3.1391029357910156,-11.288640022277832,0.006410157307982445,9.807295799255371,-0.00022939110931474715,0.0005170700023882091,-0.0008045535651035607
18155950.2136435,3.1391029357910156,11.498920440673828,0.002003477420657873,9.801557540893555,-7.271430513355881e-05,9.882249287329614e-05,-0.0007969141006469727
18155950.2823396,3.1390554904937744,0.0651448518037796,0.004184774123132229,9.82121467590332,-0.0007659816183149815,0.00024677737383171916,-0.0007304217433556914
18155950.3344257,3.1390321254730225,-0.13411644101142883,0.010430132038891315,9.808850288391113,-0.001762925647199154,-0.00024354865308851004,-0.0002580805157776922
18155950.3701909,3.1389858722686768,-0.17470765113830566,-0.021397847682237625,9.822312355041504,-0.0023986720480024815,-0.0007216089870780706,-0.0003594814334064722
18155950.4184786,3.138963222503662,-0.054674550890922546,0.0022409497760236263,9.67364501953125,-0.0009547515073791146,7.856133743189275e-05,-0.00013262301217764616
18155950.5095069,3.138918161392212,-0.08370697498321533,0.0024422851856797934,9.850963592529297,-0.0008831926388666034,0.00012618236360140145,-0.0009741651592776179
18155950.5619766,3.138852119445801,-0.016437454149127007,-0.0002464468125253916,9.842023849487305,-0.0005967715405859053,-0.0002630965318530798,-0.00103392219170928
18155950.6069232,3.138852119445801,-0.06926408410072327,0.007867307402193546,9.742826461791992,-0.0003913988475687802,0.00016734817472752184,-0.0004239425470586866
18155950.6603126,3.1387877464294434,0.02776835486292839,-0.0034416927956044674,9.850512504577637,-0.0003285956336185336,-0.0001941554364748299,0.00010631617624312639
18155950.7217429,3.1387665271759033,-0.025756392627954483,-0.006543454714119434,9.76108169555664,-0.00013120526273269206,0.0002995218092110008,-0.0005939211114309728
18155950.7987196,3.1387245655059814,0.003881275188177824,-0.0023368976544588804,9.826521873474121,0.0005191747331991792,-0.00010417580051580444,-0.0009533526608720422
18155950.8851078,3.1386427879333496,0.0012833967339247465,-0.0011917476076632738,9.828533172607422,1.018132024910301e-05,1.2594262443599291e-05,-0.0010856330627575517
18155950.925632298,3.1386024951934814,0.027698006480932236,0.01640157774090767,9.820015907287598,7.884534716140479e-05,-0.0004015100421383977,-0.00087467220146209
18155950.9814216,3.138582706451416,0.04085604101419449,-0.0018602297641336918,9.782915115356445,0.0006985405925661325,8.866009738994762e-05,-0.0007490491843782365
18155951.0342211,3.1385629177093506,0.08665153384208679,0.0029379823245108128,9.816864967346191,0.0008615036495029926,-0.0001303071912843734,-0.0010562152601778507
18155951.1052876,3.138523817062378,0.05057719722390175,0.001548565924167633,9.787863731384277,0.00020583064178936183,-0.00021997066505718976,-0.0010362302418798208
18155951.1465914,3.1384851932525635,0.09603483974933624,-0.008620982058346272,9.824783325195312,-9.231176227331161e-05,8.540387352695689e-05,0.0001047416590154171
18155951.1965395,3.1384661197662354,-0.0015828789910301566,0.0024556112475693226,9.734992980957031,0.00016479026817250997,5.1317663746885955e-05,-0.0008353829616680741
18155951.2530769,3.138428211212158,0.11283106356859207,-0.05135791748762131,9.993639945983887,0.00447497796267271,-0.012615982443094254,-0.001267582061700523
18155951.3097732,3.1383721828460693,0.047395166009664536,0.0014285343931987882,9.871378898620605,0.007264468353241682,-0.01818716712296009,-0.0003552225243765861
18155951.3683896,3.1383354663848877,0.07663340121507645,-0.015473940409719944,9.830876350402832,0.008023235946893692,-0.021627578884363174,-0.0013101333752274513
18155951.4892768,3.1383354663848877,-9.117483139038086,0.011283873580396175,9.888288497924805,0.01525232382118702,-0.008416648022830486,7.36021320335567e-05
18155951.5679033,3.1383721828460693,8.345279693603516,-0.032981306314468384,9.857943534851074,0.01769554615020752,-0.0038767633959650993,0.00060157326515764
18155951.6247427,3.1383907794952393,0.10775996744632721,-0.046138785779476166,9.845633506774902,0.018745915964245796,-0.0020053614862263203,0.0001736517297104001
18155951.6573587,3.1383907794952393,0.1250775307416916,-0.04448309168219566,9.731127738952637,0.018192140385508537,-0.0020291050896048546,-8.940522093325853e-06
18155951.7355043,3.138428211212158,0.07040122896432877,-0.02204936370253563,9.82007122039795,0.015776032581925392,0.004147649742662907,0.0007299456046894193
18155951.7886215,3.138428211212158,0.12969082593917847,-0.023641906678676605,9.784862518310547,0.014703748747706413,0.01006257813423872,0.0006783226854167879
18155951.8497485,3.1384470462799072,0.125153049826622,-0.04277921840548515,9.724550247192383,0.013277199119329453,0.013128348626196384,0.0002625042397994548
18155951.9001363,3.1384851932525635,0.10871713608503342,-0.05372803658246994,9.95289421081543,0.007566660642623901,0.00922887772321701,-0.00010093559103552252
18155951.9497398,3.1384470462799072,0.07638878375291824,-0.03817441686987877,9.745627403259277,0.0036377522628754377,0.0027757971547544003,-0.0006170939886942506
18155951.9970276,3.138409376144409,0.09028574079275131,-0.03966996818780899,9.844334602355957,9.791483171284199e-05,-0.0023423272650688887,-0.0012082323664799333
18155952.0726255,3.1383538246154785,0.10533643513917923,0.0031768574845045805,9.878366470336914,-0.006724189501255751,-0.0011271127732470632,-0.0007987071294337511
18155952.1086712,3.1382808685302734,0.13766637444496155,-0.0016062380746006966,9.946819305419922,-0.009501893073320389,0.000222248665522784,-0.0008624429465271533
18155952.160756,3.1382274627685547,0.06191778928041458,-0.03505752235651016,9.789366722106934,-0.011314157396554947,0.0009409426129423082,-0.0008994130766950548
18155952.2298022,3.1381399631500244,0.11881799250841141,-0.03355273976922035,9.809511184692383,-0.01239705178886652,0.002535981358960271,-0.0013719454873353243
18155952.28368,3.138105630874634,0.14032846689224243,-0.030391596257686615,9.825326919555664,-0.01340640988200903,0.0023382436484098434,-0.001432411721907556
18155952.3308932,3.138021230697632,0.11939159780740738,-0.04187146946787834,9.749210357666016,-0.01269508432596922,0.0010396684519946575,-0.0008999590645544231
18155952.3779637,3.1379878520965576,0.14331701397895813,-0.012422818690538406,9.755311965942383,-0.010202096775174141,0.0040862467139959335,-0.000516608590260148
18155952.4318755,3.137922525405884,0.13749414682388306,-0.02238522097468376,9.81065559387207,-0.008935743011534214,0.005867601837962866,-0.0009144726791419089
18155952.4853605,3.137890100479126,0.10818102955818176,-0.029363861307501793,9.758074760437012,-0.007653095759451389,0.006761347409337759,-0.0005837075877934694
18155952.5464548,3.1378421783447266,0.08665202558040619,-0.01048368401825428,9.744264602661133,-0.007317259907722473,0.007508866023272276,-0.001110189245082438
18155952.612067,3.1377947330474854,0.15072204172611237,-0.02663676254451275,9.742055892944336,-0.003920639865100384,0.0037120275665074587,-0.0008297002059407532
18155952.6764974,3.1377480030059814,0.12225236743688583,-0.0019128378480672836,9.776511192321777,-0.002329019596800208,0.002700102748349309,-0.0010071230353787541
18155952.7467018,3.1376864910125732,0.12867212295532227,0.0009230521391145885,9.81362247467041,-0.000523380353115499,0.0015604859218001366,-0.0006809599581174552
18155952.7809687,3.1376712322235107,0.0836934968829155,-0.0007826098008081317,9.82252311706543,-0.00011275382712483406,0.0018144274363294244,-0.000479272537631914
18155952.8260382,3.1376559734344482,0.13452723622322083,-0.011974339373409748,9.665465354919434,-0.0005689933896064758,0.0012542549520730972,-0.0006536676082760096
18155952.8926262,3.137610912322998,0.0781598761677742,0.000299913517665118,9.783889770507812,3.2779862522147596e-05,0.0009358866373077035,-9.124507778324187e-05
18155952.9516324,3.137610912322998,0.0831223875284195,0.0010995499324053526,9.868183135986328,2.059468170045875e-05,0.0010894035222008824,-0.0006901660817675292
18155953.0066392,3.1375958919525146,0.06295109540224075,-0.014864576980471611,9.810091018676758,-0.00021910724171902984,-0.0003614781890064478,-0.0003239828220102936
18155953.0468168,3.1375811100006104,0.08101073652505875,0.012586871162056923,9.801474571228027,-0.00019257672829553485,-4.339377483120188e-05,-0.0005332245491445065
18155953.0880167,3.137566089630127,0.1048809215426445,0.017046036198735237,9.783015251159668,0.0003552247362677008,-0.00024544534971937537,0.0001704036840237677
18155953.1244322,3.1375367641448975,0.019014272838830948,-0.007739492692053318,10.032950401306152,0.007971345447003841,-3.881887096213177e-06,-0.0005060178227722645
18155953.1815991,3.137507438659668,0.15354317426681519,-0.007274405565112829,9.97803020477295,0.014626842923462391,-0.000622719875536859,-0.0008202979806810617
18155953.2359084,3.137507438659668,0.03866725414991379,0.00434529222548008,9.962043762207031,0.018276406452059746,-0.00029949250165373087,0.00021514389663934708
18155953.275393,3.1374928951263428,0.04318675398826599,0.012201685458421707,9.885355949401855,0.020452748984098434,0.0001715133839752525,-0.0007737530395388603
18155953.3441997,3.1374495029449463,0.11135432869195938,-0.011489702388644218,9.825274467468262,0.021557416766881943,-0.0002109724737238139,-0.00032149150501936674
18155953.3832358,3.137420892715454,0.028452308848500252,0.007045358419418335,9.841750144958496,0.02268700860440731,-0.0005053904606029391,-0.0006742844125255942
18155953.436116,3.1374495029449463,0.11004916578531265,0.008927343413233757,9.793452262878418,0.022322507575154305,0.00023866401170380414,0.0003405082388781011
18155953.5075322,3.137420892715454,0.1365135759115219,-0.0022831314709037542,9.784677505493164,0.022008202970027924,0.0004401812911964953,0.0001772171090124175
18155953.5598369,3.137406587600708,0.12383072823286057,0.003383791074156761,9.831221580505371,0.022089332342147827,-0.00011200729932170361,0.0005086830933578312
18155953.595304,3.137392282485962,0.13618780672550201,-0.024805568158626556,9.821120262145996,0.02144719287753105,-0.0004612709453795105,-0.00030395505018532276
18155953.6536785,3.137378215789795,0.10191874206066132,-0.006271831691265106,9.72057056427002,0.0212581567466259,-0.00023905654961708933,-0.00017740592011250556
18155953.7077859,3.137349843978882,0.18236663937568665,0.0001138337975135073,9.838359832763672,0.02050589583814144,3.538531018421054e-05,0.0003410055651329458
18155953.7610453,3.137336015701294,0.10761703550815582,0.0020368853583931923,9.942841529846191,0.011929738335311413,0.0002965254243463278,-0.0009135224972851574
18155953.8108176,3.137336015701294,0.0278440210968256,0.0008563920855522156,9.995969772338867,0.005233739502727985,0.00019034434808418155,0.0002906828885897994
18155953.8758583,3.13730788230896,0.10933907330036163,-0.009560815989971161,9.982796669006348,0.0008159575518220663,-1.1165051546413451e-05,0.00018588743114378303
18155953.9069278,3.13730788230896,0.13991160690784454,-0.005062882788479328,9.917813301086426,-0.0002572723024059087,5.2563787903636694e-05,-0.0010999464429914951
18155953.9487073,3.13730788230896,0.13137578964233398,-0.0020724183414131403,9.893610000610352,-0.0015773701015859842,-0.0001091849262593314,-0.00048459041863679886
18155953.9999688,3.137294054031372,0.15181899070739746,0.00276534678414464,9.827274322509766,-0.0021795921493321657,0.00036411322071217,3.78715485567227e-05
18155954.0377983,3.137280225753784,0.13564054667949677,-0.016103927046060562,9.789471626281738,-0.0019040163606405258,6.265881529543549e-05,-0.000758482376113534
18155954.090598598,3.1372663974761963,0.18721863627433777,0.01915893331170082,9.771769523620605,-0.0016632486367598176,0.0005791090661659837,-0.0007370075909420848
18155954.189271,3.137211799621582,0.13594341278076172,-0.005281933583319187,9.75551700592041,-0.0020457147620618343,0.0005984827294014394,0.0005008053267374635
18155954.2419277,3.1371982097625732,0.14618223905563354,-0.003797158133238554,9.871761322021484,-0.0012786483857780695,-0.0002432079636491835,0.0005434455815702677
18155954.2766857,3.137225389480591,0.21335658431053162,0.0060355328023433685,9.811474800109863,-0.001288643223233521,-0.0003394306404516101,2.7932546800002456e-06
18155954.3286328,3.1371982097625732,0.164931520819664,0.00887203961610794,9.731964111328125,-0.0012018273118883371,0.00014303933130577207,-4.184767749393359e-05
18155954.4875127,3.1371846199035645,-16.410673141479492,0.0012565739452838898,9.824921607971191,0.00011802047811215743,-0.00041228896589018404,0.00026990423793904483
18155954.5285862,3.1371982097625732,17.769472122192383,-0.00492654275149107,9.803664207458496,0.0003649941645562649,-0.00040548527613282204,-0.00021428224863484502
18155954.6211611,3.137144088745117,0.22849999368190765,-0.004767301958054304,9.759527206420898,-0.00010437701712362468,-0.00028287124587222934,-0.0010181134566664696
18155954.7230717,3.1371307373046875,-0.6814250349998474,-0.0004845309304073453,9.80345344543457,0.001133483019657433,0.0007296281401067972,-0.0008962969877757132
18155954.7591362,3.137157678604126,1.481777310371399,0.008960040286183357,9.899178504943848,0.0001348704972770065,0.00032822127104736865,-0.0004642079002223909
18155954.8051013,3.137117385864258,0.23753389716148376,-0.004826032090932131,9.667655944824219,-0.0002058904938166961,0.00023717229487374425,-0.0012457323027774692
18155954.8552263,3.1371042728424072,0.2185664176940918,-0.011549370363354683,9.87153148651123,0.0001167293667094782,5.956750828772783e-05,-0.0002725900849327445
18155954.9077269,3.137117385864258,0.18566906452178955,0.01248910278081894,9.771500587463379,0.0001601449475856498,0.00018774019554257393,0.0001284827449126169
18155954.9470492,3.1370909214019775,0.23262545466423035,-0.002910418203100562,9.90478229522705,0.004343303851783276,2.005283022299409e-06,-0.000807042873930186
18155955.0135531,3.1370909214019775,0.25083622336387634,-0.0036448254249989986,9.834425926208496,0.008478835225105286,0.0007138774381019175,0.0004704265738837421
18155955.0520047,3.1371042728424072,0.19668708741664886,0.009499462321400642,9.98769474029541,0.008984963409602642,-0.00033526949118822813,-0.0005410159355960786
18155955.1045526,3.1370909214019775,0.2761737108230591,-0.011116424575448036,9.804047584533691,0.010667979717254639,0.0004664661828428507,-0.000844040303491056
18155955.1692927,3.137077808380127,0.24819229543209076,-0.0007772688986733556,9.747644424438477,0.011302551254630089,-0.00038953492185100913,0.00041619210969656706
18155955.2023425,3.1370644569396973,0.3229764401912689,0.0016113788587972522,9.825933456420898,0.011083452962338924,3.7975318264216185e-05,7.692202780162916e-05
18155955.2815899,3.137077808380127,0.2570071816444397,0.010285265743732452,9.837060928344727,0.010947776958346367,-0.0001598149538040161,0.0002039748360402882
18155955.3261988,3.1370644569396973,0.2894146144390106,-0.00713910348713398,9.82564926147461,0.011154348962008953,0.0005748613039031625,0.00023965528816916049
18155955.3681795,3.1370513439178467,0.26659125089645386,-0.008438928984105587,9.814659118652344,0.011654039844870567,0.00010436157754156739,5.840945232193917e-05
18155955.4124696,3.1370513439178467,0.2907516062259674,-0.005581531673669815,9.767241477966309,0.010649149306118488,9.327924635726959e-05,-0.0004473755834624171
18155955.468869,3.1370513439178467,0.24636974930763245,0.003203530563041568,9.818096160888672,0.009961619973182678,0.0001953618775587529,0.00024952227249741554
18155955.5024306,3.1370644569396973,0.22586174309253693,-0.0011433821637183428,9.865706443786621,0.010554284788668156,0.0006865665782243013,-0.00021583882335107774
18155955.5529648,3.1370513439178467,0.2624434530735016,0.003080791560932994,9.755719184875488,0.008283818140625954,-0.00034150289138779044,-0.0005295328446663916
18155955.6111439,3.1370513439178467,0.16851475834846497,0.002303261309862137,9.906566619873047,0.0033876090310513973,-0.00014463099068962038,-8.337928738910705e-05
18155955.731239,3.1370513439178467,-8.721135139465332,0.0019952384755015373,9.904659271240234,-0.0008538906695321202,-0.0002597728162072599,-0.00037013363908044994
18155955.7716214,3.1370513439178467,10.094822883605957,0.0015038674464449286,9.869298934936523,-0.000811666832305491,-0.00018426259339321405,-0.00010062061483040452
18155955.8243811,3.1370644569396973,0.2816094756126404,0.011823521926999092,9.815308570861816,0.00023754060384817421,0.00028431249666027725,0.0008049699245020747
18155955.9020134,3.137038230895996,0.22182142734527588,-0.012837374582886696,9.83116340637207,0.0037719043903052807,0.0003544303181115538,-0.0002471202751621604
18155955.9696504,3.137038230895996,0.23935697972774506,0.00289906095713377,9.87975025177002,0.005705620162189007,0.00035416585160419345,0.0009043734753504395
18155956.0371315,3.1370251178741455,0.25216323137283325,0.002255180384963751,9.801392555236816,0.005915847606956959,0.0004686500469688326,-0.00016984253306873143
18155956.0700254,3.137038230895996,0.2301405817270279,-0.0012886333279311657,9.720189094543457,0.0067975400015711784,-0.0007967610144987702,0.00043196434853598475
18155956.1450099,3.137038230895996,0.22037941217422485,0.006890388671308756,9.857748031616211,0.006866218522191048,0.0003944819909520447,-0.00015530124073848128
18155956.1757095,3.1370251178741455,0.24771641194820404,-0.0074596889317035675,9.798821449279785,0.006556073669344187,-0.0004225284792482853,0.0003224323154427111
18155956.2383558,3.137012243270874,0.22622250020503998,-0.007836621254682541,9.795636177062988,0.007356371730566025,-9.788100578589365e-05,8.43207526486367e-05
18155956.2851769,3.137012243270874,0.26068076491355896,-0.003363948781043291,9.806997299194336,0.0072196065448224545,-0.00015120576426852494,-0.00010139452933799475
18155956.3152511,3.1370251178741455,0.19068151712417603,0.011052843183279037,9.826183319091797,0.006558586843311787,0.00040617381455376744,-0.0002144303871318698
18155956.3902321,3.137012243270874,0.28314605355262756,-0.004625160247087479,9.794316291809082,0.007704912219196558,0.00026987335877493024,0.000515321153216064
18155956.4323489,3.137012243270874,0.30336564779281616,-0.003284377045929432,9.820094108581543,0.006837493274360895,-0.00038914562901481986,0.0006863026064820588
18155956.5496701,3.137012243270874,-8.516170501708984,-0.004838465712964535,9.878511428833008,0.0019992785528302193,-0.0004145094135310501,-9.874166426016018e-05
18155956.6481996,3.1369991302490234,6.696873664855957,0.0038068362046033144,9.836869239807129,-0.00013983937969896942,0.00011608429485931993,-7.805314817233011e-05
18155956.6759309,3.1369991302490234,0.23622141778469086,-0.008783218450844288,9.883362770080566,-0.00026374345179647207,-5.4154668760020286e-05,0.000548585201613605
18155956.7356756,3.1369991302490234,0.3346194326877594,0.004945008084177971,9.767831802368164,0.0008962034480646253,0.0007578307413496077,9.109393431572244e-05
18155956.7843076,3.1369991302490234,0.36702191829681396,-0.0002762314397841692,9.806715965270996,0.0016926268581300974,-3.89588312827982e-05,0.0006341090775094926
18155956.8362491,3.1370251178741455,0.3048909306526184,0.0008982117287814617,9.902657508850098,0.0027166849467903376,-8.160473225871101e-05,0.00027856510132551193
18155956.8819377,3.137012243270874,0.33390012383461,-0.0011472292244434357,9.735836029052734,0.0034875397104769945,0.0006841919966973364,-0.00034697717637754977
18155956.9110085,3.137012243270874,0.2403879016637802,0.013805524446070194,9.840170860290527,0.0036480831913650036,-0.0001727960625430569,0.0004681975697167218
18155956.9558475,3.1370251178741455,0.3790704607963562,-0.0009887868072837591,9.788533210754395,0.003704494796693325,0.00011131490464322269,-0.000507371558342129
18155956.9917371,3.137012243270874,0.35884377360343933,0.0007757861167192459,9.755468368530273,0.0034894493874162436,-0.00012910434452351183,0.0005994807579554617
18155957.2172498,3.137012243270874,-19.98002052307129,-0.00017517706146463752,9.882323265075684,0.002711219247430563,-0.00012600753689184785,-0.0005479907267726958
18155957.3184265,3.1369991302490234,16.048208236694336,0.0008259212481789291,9.749265670776367,0.0036290078423917294,8.415992488153279e-05,-0.0003935883578378707
18155957.4295508,3.1370251178741455,-3.5853278636932373,0.00022645993158221245,9.823012351989746,0.003638303140178323,-0.0003037099668290466,0.0009777008090168238
18155957.6475335,3.137012243270874,5.0004119873046875,-0.0021464163437485695,9.795185089111328,0.002298068255186081,0.00034431659150868654,-6.181509525049478e-05
18155957.6475335,3.1370251178741455,-7.182477951049805,0.0043772244825959206,9.854562759399414,-0.0001717227278277278,-0.0002091462374664843,0.000141536133014597
18155957.772663802,3.1370251178741455,-0.6368049383163452,-0.00031014205887913704,9.80489730834961,-0.0027746863197535276,6.350091280182824e-05,-7.869911496527493e-05
18155957.9359976,3.1369991302490234,-5.802865505218506,-0.00040872953832149506,9.809552192687988,-0.005641462747007608,-0.00034722627606242895,-0.00030244479421526194
