timestamp,velocity_x,velocity_y,velocity_z,acceleration_x,acceleration_y,acceleration_z,angular_velocity_x,angular_velocity_y,angular_velocity_z,location_x,location_y,location_z,rotation_pitch,rotation_yaw,rotation_roll,control_throttle,control_steer,control_brake,control_hand_brake,control_reverse,control_manual_gear_shift,control_gear
18155904.7401528,-6.994395334913861e-06,-9.215920727001503e-05,-0.005303198471665382,-0.0002932562492787838,-0.003863988444209099,-0.2223488986492157,-0.0007931489963084459,-0.0016122428933158517,-0.00027107930509373546,-85.14686584472656,-103.282470703125,-0.4489133059978485,-1.2020585536956787,89.84300231933594,-0.0015868740156292915,0.699999988079071,-1.7285942703892943e-06,0.0,False,False,False,0
18155904.7701789,-9.698857866169419e-06,-2.8590558940777555e-05,-0.002528356621041894,-9.003261220641434e-05,0.0021162249613553286,0.09237556904554367,-0.000549224903807044,-0.002570844953879714,-0.0002549378259573132,-85.14686584472656,-103.282470703125,-0.44898444414138794,-1.2020585536956787,89.84300231933594,-0.0015868740156292915,0.699999988079071,-5.365610036278667e-07,0.0,False,False,False,0
18155904.7965406,-1.2182957107143011e-05,-6.679951911792159e-05,-0.004059771075844765,-9.428359044250101e-05,-0.0014502150006592274,-0.0581245943903923,-0.0009135077125392854,-0.0033761560916900635,-0.00022960836940910667,-85.14686584472656,-103.282470703125,-0.44912829995155334,-1.2020585536956787,89.84300231933594,-0.0015868740156292915,0.699999988079071,-5.366206323742517e-07,0.0,False,False,False,0
18155904.8073853,-1.2567628800752573e-05,2.96992056973977e-05,0.00016775463882368058,-3.547682354110293e-05,0.008899714797735214,0.38988879323005676,-0.000265747046796605,-0.0036141183227300644,-0.00023121772392187268,-85.14686584472656,-103.282470703125,-0.4491313099861145,-1.2020858526229858,89.84300231933594,-0.0014037525979802012,0.699999988079071,-5.366206323742517e-07,0.0,False,False,False,0
18155904.9197495,-1.4134158845990896e-05,6.65146071696654e-05,0.001719271531328559,-1.472206804464804e-05,-0.0003685274859890342,-0.015477359294891357,-0.00019833061378449202,-0.004067425150424242,-0.00022329413332045078,-85.14686584472656,-103.282470703125,-0.44907477498054504,-1.2020858526229858,89.84300231933594,-0.0014037525979802012,0.699999988079071,-5.367398330236028e-07,0.0,False,False,False,0
18155904.9682969,-1.2355642866168637e-05,3.235012263758108e-05,0.00046734686475247145,3.6640594771597534e-05,-0.0007038491894491017,-0.025791876018047333,-0.00020691003010142595,-0.0036672032438218594,-0.0002151807420887053,-85.14686584472656,-103.282470703125,-0.4492233991622925,-1.202147364616394,89.8429946899414,-0.001007087528705597,0.699999988079071,-5.36799404926569e-07,0.0,False,False,False,0
18155905.0186485,-1.1776617611758411e-05,6.754130299668759e-05,0.0020150637719780207,1.1502997949719429e-05,0.0006991130067035556,0.03074716404080391,-5.494333163369447e-05,-0.003456341801211238,-0.00022213619376998395,-85.14686584472656,-103.282470703125,-0.44913309812545776,-1.202147364616394,89.8429946899414,-0.0008239661692641675,0.699999988079071,-5.36859033672954e-07,0.0,False,False,False,0
18155905.0186485,-1.1776617611758411e-05,6.754130299668759e-05,0.0020150637719780207,1.1502997949719429e-05,0.0006991130067035556,0.03074716404080391,-5.494333163369447e-05,-0.003456341801211238,-0.00022213619376998395,-85.14686584472656,-103.282470703125,-0.44913309812545776,-1.202147364616394,89.8429946899414,-0.0008239661692641675,0.699999988079071,-5.36859033672954e-07,0.0,False,False,False,0
18155905.0713907,-1.0188894520979375e-05,0.00014421105151996017,0.005271205212920904,3.010078398801852e-05,0.0014535404043272138,0.061731427907943726,0.0005290311528369784,-0.0029807754326611757,-0.0002458461094647646,-85.1468505859375,-103.282470703125,-0.4488223195075989,-1.202120065689087,89.84300231933594,-0.0006713205366395414,0.699999988079071,-5.369186624193389e-07,0.0,False,False,False,0
18155905.116071,-8.740876182855573e-06,9.25084896152839e-05,0.002990717301145196,3.240632213419303e-05,-0.00115709169767797,-0.05103680491447449,0.00016875535948202014,-0.0024822019040584564,-0.00025508805993013084,-85.1468505859375,-103.282470703125,-0.4486389458179474,-1.202120065689087,89.84300231933594,-0.0005492573836818337,0.699999988079071,1.191616092910408e-06,0.0,False,False,False,0
18155905.1633251,-7.76696288085077e-06,3.6451219784794375e-05,0.0005907444283366203,2.0612576918210834e-05,-0.0011864349944517016,-0.05079469084739685,-9.885264444164932e-05,-0.0021522443275898695,-0.0002558175183366984,-85.1468505859375,-103.282470703125,-0.4486166536808014,-1.202120065689087,89.84300231933594,-0.0005492573836818337,0.699999988079071,-4.768371808516747e-10,0.0,False,False,False,0
18155905.2071075,-6.421658781619044e-06,1.974642145796679e-05,-0.00011018774239346385,3.072129766223952e-05,-0.00038146995939314365,-0.016006452962756157,-0.000148418199387379,-0.0017628753557801247,-0.0002599307626951486,-85.1468505859375,-103.282470703125,-0.44863322377204895,-1.202120065689087,89.84300231933594,-0.0005492573836818337,0.699999988079071,-4.768371808516747e-10,0.0,False,False,False,0
18155905.2071075,-6.421658781619044e-06,1.974642145796679e-05,-0.00011018774239346385,3.072129766223952e-05,-0.00038146995939314365,-0.016006452962756157,-0.000148418199387379,-0.0017628753557801247,-0.0002599307626951486,-85.1468505859375,-103.282470703125,-0.44863322377204895,-1.202120065689087,89.84300231933594,-0.0005492573836818337,0.699999988079071,-4.768371808516747e-10,0.0,False,False,False,0
18155905.2798815,-5.6170765674323775e-06,5.66384187550284e-05,0.0014899420784786344,1.105781575461151e-05,0.0005070270271971822,0.021991463378071785,8.327961404575035e-05,-0.0014999537961557508,-0.0002708079118747264,-85.1468505859375,-103.282470703125,-0.44856199622154236,-1.202120065689087,89.84300231933594,-0.0005492573836818337,0.699999988079071,-4.768371808516747e-10,0.0,False,False,False,0
18155905.2798815,-5.6170765674323775e-06,5.66384187550284e-05,0.0014899420784786344,1.105781575461151e-05,0.0005070270271971822,0.021991463378071785,8.327961404575035e-05,-0.0014999537961557508,-0.0002708079118747264,-85.1468505859375,-103.282470703125,-0.44856199622154236,-1.202120065689087,89.84300231933594,-0.0005492573836818337,0.699999988079071,-4.768371808516747e-10,0.0,False,False,False,0
18155905.3414125,-3.5596640373114496e-06,4.5428572775563225e-05,0.0009964706841856241,3.343635762576014e-05,-0.0001821785408537835,-0.008019725792109966,8.022804104257375e-05,-0.0008718144381418824,-0.0002842340327333659,-85.1468505859375,-103.282470703125,-0.4484744071960449,-1.202120065689087,89.84300231933594,-0.0005492573836818337,0.699999988079071,-4.768371808516747e-10,0.0,False,False,False,0
18155905.3414125,-3.5596640373114496e-06,4.5428572775563225e-05,0.0009964706841856241,3.343635762576014e-05,-0.0001821785408537835,-0.008019725792109966,8.022804104257375e-05,-0.0008718144381418824,-0.0002842340327333659,-85.1468505859375,-103.282470703125,-0.4484744071960449,-1.202120065689087,89.84300231933594,-0.0005492573836818337,0.699999988079071,-4.768371808516747e-10,0.0,False,False,False,0
18155905.3999306,-3.4464505915821064e-06,2.2950469428906217e-05,2.3806067474652082e-05,1.934416104631964e-06,-0.0003840710560325533,-0.01661938801407814,-9.005977335618809e-05,-0.0008034328348003328,-0.00028187953284941614,-85.1468505859375,-103.282470703125,-0.44848212599754333,-1.202120065689087,89.84300231933594,-0.0005492573836818337,0.699999988079071,-4.768371808516747e-10,0.0,False,False,False,0
18155905.507315,-2.280831040479825e-06,4.870176053373143e-05,0.001109273754991591,6.872337507957127e-06,0.0001353804545942694,0.005226569715887308,0.0001103435643017292,-0.0004301282751839608,-0.0002959678531624377,-85.1468505859375,-103.282470703125,-0.4483448266983032,-1.202120065689087,89.84300231933594,-0.0005492573836818337,0.699999988079071,-4.768371808516747e-10,0.0,False,False,False,0
18155905.5802119,-1.7808237089411705e-06,5.640923700411804e-05,0.0013861971674486995,6.859893346700119e-06,0.00010574338375590742,0.003799274330958724,0.0001359184243483469,-0.0002659845049493015,-0.0003023373428732157,-85.1468505859375,-103.282470703125,-0.4482519328594208,-1.202120065689087,89.84300231933594,-0.0005492573836818337,0.699999988079071,-4.768371808516747e-10,0.0,False,False,False,0
18155905.5802119,-1.7808237089411705e-06,5.640923700411804e-05,0.0013861971674486995,6.859893346700119e-06,0.00010574338375590742,0.003799274330958724,0.0001359184243483469,-0.0002659845049493015,-0.0003023373428732157,-85.1468505859375,-103.282470703125,-0.4482519328594208,-1.202120065689087,89.84300231933594,-0.0005492573836818337,0.699999988079071,-4.768371808516747e-10,0.0,False,False,False,0
18155905.6439512,-1.4418619684875011e-06,1.1194943908776622e-05,-0.0005373801686801016,5.318197963788407e-06,-0.0007093973690643907,-0.030180295929312706,-0.00013488622789736837,-0.00015642179641872644,-0.00029912442550994456,-85.1468505859375,-103.282470703125,-0.44830790162086487,-1.202120065689087,89.84300231933594,-0.0005492573836818337,0.699999988079071,-4.768371808516747e-10,0.0,False,False,False,0
18155905.7198445,-1.300649046243052e-06,-7.576942152809352e-06,-0.0013067650143057108,1.8604737306304742e-06,-0.00024731873418204486,-0.010136609897017479,-0.000193749918253161,-0.00010833385749720037,-0.0002937341923825443,-85.1468505859375,-103.282470703125,-0.44842541217803955,-1.202120065689087,89.84300231933594,-0.0005492573836818337,0.699999988079071,-4.768371808516747e-10,0.0,False,False,False,0
18155905.7756037,-1.2763490531142452e-06,2.5856494175968692e-05,0.00016713241348043084,4.3580084252425877e-07,0.0005996018298901618,0.02643316425383091,6.109484093030915e-05,-0.00010400138125987723,-0.00029755252762697637,-85.1468505859375,-103.282470703125,-0.4484149217605591,-1.202120065689087,89.84300231933594,-0.0005492573836818337,0.699999988079071,-4.768371808516747e-10,0.0,False,False,False,0
18155905.7756037,-1.2763490531142452e-06,2.5856494175968692e-05,0.00016713241348043084,4.3580084252425877e-07,0.0005996018298901618,0.02643316425383091,6.109484093030915e-05,-0.00010400138125987723,-0.00029755252762697637,-85.1468505859375,-103.282470703125,-0.4484149217605591,-1.202120065689087,89.84300231933594,-0.0005492573836818337,0.699999988079071,-4.768371808516747e-10,0.0,False,False,False,0
18155905.8295248,-1.1009326499333838e-06,5.0572751206345856e-05,0.001197161851450801,3.2538509913138114e-06,0.00045846920693293214,0.019106322899460793,0.00013927181134931743,-6.294724153121933e-05,-0.00030360918026417494,-85.1468505859375,-103.282470703125,-0.44832858443260193,-1.202120065689087,89.84300231933594,-0.0005492573836818337,0.699999988079071,-4.768371808516747e-10,0.0,False,False,False,0
18155905.8295248,-1.1009326499333838e-06,5.0572751206345856e-05,0.001197161851450801,3.2538509913138114e-06,0.00045846920693293214,0.019106322899460793,0.00013927181134931743,-6.294724153121933e-05,-0.00030360918026417494,-85.1468505859375,-103.282470703125,-0.44832858443260193,-1.202120065689087,89.84300231933594,-0.0005492573836818337,0.699999988079071,-4.768371808516747e-10,0.0,False,False,False,0
18155905.9152233,-1.0173296232096618e-06,4.602432090905495e-05,0.000961709360126406,9.755380006026826e-07,-5.307423634803854e-05,-0.002747422782704234,9.236596088157967e-05,-2.578975363576319e-05,-0.00030592276016250253,-85.1468505859375,-103.282470703125,-0.4482596814632416,-1.202120065689087,89.84300231933594,-0.0005492573836818337,0.699999988079071,-4.768371808516747e-10,0.0,False,False,False,0
18155905.9152233,-1.0173296232096618e-06,4.602432090905495e-05,0.000961709360126406,9.755380006026826e-07,-5.307423634803854e-05,-0.002747422782704234,9.236596088157967e-05,-2.578975363576319e-05,-0.00030592276016250253,-85.1468505859375,-103.282470703125,-0.4482596814632416,-1.202120065689087,89.84300231933594,-0.0005492573836818337,0.699999988079071,-4.768371808516747e-10,0.0,False,False,False,0
18155905.992771998,-1.076521584764123e-06,1.9193887055735104e-05,-0.0001900242641568184,-7.631025482623954e-07,-0.0003458978608250618,-0.014848144724965096,-5.804660031571984e-05,-2.2457043087342754e-05,-0.00030316345510073006,-85.1468505859375,-103.282470703125,-0.4482799768447876,-1.202120065689087,89.84300231933594,-0.0005492573836818337,0.699999988079071,-4.768371808516747e-10,0.0,False,False,False,0
18155906.0589357,-9.96104745354387e-07,2.090930820486392e-06,-0.0008861905080266297,1.2154168871347792e-06,-0.0002584933827165514,-0.010521828196942806,-0.00010523760283831507,-2.5390372684341855e-06,-0.00029808180988766253,-85.1468505859375,-103.282470703125,-0.4483864903450012,-1.202120065689087,89.84300231933594,-0.0005492573836818337,0.699999988079071,-4.768371808516747e-10,0.0,False,False,False,0
18155906.1226925,-1.1544877906999318e-06,-4.445910235517658e-06,-0.0011379456846043468,-2.484822061887826e-06,-0.00010255446250084788,-0.003949708305299282,-0.0001417814492015168,-6.280186062213033e-05,-0.0002914972719736397,-85.1468505859375,-103.282470703125,-0.44849804043769836,-1.202120065689087,89.84300231933594,-0.0005492573836818337,0.699999988079071,-4.768371808516747e-10,0.0,False,False,False,0
18155906.2193168,0.0018291085725650191,0.6732832193374634,-0.015207594260573387,0.01893996074795723,6.96732759475708,-0.14559578895568848,2.9286162853240967,-0.009416699409484863,-6.501497409772128e-05,-85.14678192138672,-103.25931549072266,-0.4501742720603943,-1.0964707136154175,89.84281158447266,-0.00042733855661936104,0.699999988079071,-4.768371808516747e-10,0.0,False,False,False,0
18155906.2826551,0.004296689294278622,1.5667273998260498,-0.03583185747265816,0.03896692395210266,14.108868598937988,-0.3256891071796417,2.9977476596832275,-0.008157294243574142,6.926658443262568e-06,-85.14644622802734,-103.1365966796875,-0.456479549407959,-0.775909423828125,89.84280395507812,-0.0003967209195252508,0.699999988079071,-4.768371808516747e-10,0.0,False,False,False,1
18155906.3676046,0.005326448939740658,1.940017819404602,-0.04414880648255348,0.012120851315557957,4.393838405609131,-0.09789517521858215,1.8645623922348022,-0.0044687530025839806,-8.2468295659055e-06,-85.14613342285156,-103.02056121826172,-0.46069616079330444,-0.6302488446235657,89.84282684326172,-0.0004272861697245389,0.699999988079071,-4.768371808516747e-10,0.0,False,False,False,1
18155906.4589434,0.0063410126604139805,2.3089144229888916,-0.05177651345729828,0.011107077822089195,4.038547039031982,-0.08350538462400436,0.5164040923118591,-0.0008016477222554386,-1.1543036634975579e-05,-85.14562225341797,-102.83580780029297,-0.465725839138031,-0.5423579812049866,89.84281921386719,-0.0004882736539002508,0.699999988079071,-4.768371808516747e-10,0.0,False,False,False,1
18155906.4589434,0.0063410126604139805,2.3089144229888916,-0.05177651345729828,0.011107077822089195,4.038547039031982,-0.08350538462400436,0.5164040923118591,-0.0008016477222554386,-1.1543036634975579e-05,-85.14562225341797,-102.83580780029297,-0.465725839138031,-0.5423579812049866,89.84281921386719,-0.0004882736539002508,0.699999988079071,-4.768371808516747e-10,0.0,False,False,False,1
18155906.5396144,0.007194964215159416,2.6201043128967285,-0.060226310044527054,0.010585895739495754,3.857623815536499,-0.10474677383899689,-0.3098420202732086,0.0015937951393425465,-1.5114143025130033e-05,-85.1449966430664,-102.60789489746094,-0.4709671437740326,-0.5437923073768616,89.84281158447266,-0.000549348013009876,0.699999988079071,-4.768371808516747e-10,0.0,False,False,False,1
18155906.5396144,0.007194964215159416,2.6201043128967285,-0.060226310044527054,0.010585895739495754,3.857623815536499,-0.10474677383899689,-0.3098420202732086,0.0015937951393425465,-1.5114143025130033e-05,-85.1449966430664,-102.60789489746094,-0.4709671437740326,-0.5437923073768616,89.84281158447266,-0.000549348013009876,0.699999988079071,-4.768371808516747e-10,0.0,False,False,False,1
18155906.6207306,0.007849826477468014,2.859467029571533,-0.06602867692708969,0.008073187433183193,2.950880289077759,-0.0715319812297821,-0.6087027788162231,0.0022130783181637526,-1.2070516277162824e-05,-85.1443862915039,-102.3852310180664,-0.47569674253463745,-0.5853608250617981,89.84281921386719,-0.0006103732739575207,0.699999988079071,-4.768371808516747e-10,0.0,False,False,False,1
18155906.6207306,0.007849826477468014,2.859467029571533,-0.06602867692708969,0.008073187433183193,2.950880289077759,-0.0715319812297821,-0.6087027788162231,0.0022130783181637526,-1.2070516277162824e-05,-85.1443862915039,-102.3852310180664,-0.47569674253463745,-0.5853608250617981,89.84281921386719,-0.0006103732739575207,0.699999988079071,-4.768371808516747e-10,0.0,False,False,False,1
18155906.697220698,0.008002156391739845,2.9152450561523438,-0.06672787666320801,0.0019914826843887568,0.7292131781578064,-0.009140976704657078,-1.409114956855774,0.00426462572067976,-1.0216806003882084e-05,-85.14374542236328,-102.14895629882812,-0.4802494943141937,-0.6660799980163574,89.84281158447266,-0.0006409070920199156,0.0,-4.768371808516747e-10,1.0,False,False,False,1
18155906.697220698,0.008002156391739845,2.9152450561523438,-0.06672787666320801,0.0019914826843887568,0.7292131781578064,-0.009140976704657078,-1.409114956855774,0.00426462572067976,-1.0216806003882084e-05,-85.14374542236328,-102.14895629882812,-0.4802494943141937,-0.6660799980163574,89.84281158447266,-0.0006409070920199156,0.0,-4.768371808516747e-10,1.0,False,False,False,1
18155906.7775822,0.007986386306583881,2.909963369369507,-0.06566894799470901,-0.00019624932610895485,-0.06572744995355606,0.013177736662328243,-1.480057954788208,0.004306479822844267,-6.8371082306839526e-06,-85.1431655883789,-101.92848205566406,-0.4839031398296356,-0.7857039570808411,89.84282684326172,-0.0006714226328767836,0.699999988079071,-4.768371808516747e-10,0.0,False,False,False,1
18155906.8567817,0.008223921060562134,2.99656343460083,-0.06858420372009277,0.0029989907052367926,1.093367576599121,-0.036806508898735046,-0.9583921432495117,0.003161456435918808,-1.1081172488047741e-05,-85.14251708984375,-101.69192504882812,-0.4882902503013611,-0.8812241554260254,89.84281158447266,-0.0007018849137239158,0.699999988079071,-4.768371808516747e-10,0.0,False,False,False,1
18155906.9088334,0.008613075129687786,3.139115333557129,-0.07152627408504486,0.007476054597645998,2.738570213317871,-0.05652023106813431,-0.4194575250148773,0.0013015776639804244,-3.7690388126065955e-06,-85.141845703125,-101.44853973388672,-0.4932939112186432,-0.9305381178855896,89.84281921386719,-0.0007019478362053633,0.699999988079071,-4.768371808516747e-10,0.0,False,False,False,1
18155906.9708769,0.00891527533531189,3.2489397525787354,-0.07168654352426529,0.004871627315878868,1.7704277038574219,-0.0025836280547082424,-0.16196401417255402,0.0007196619408205152,-5.60025182494428e-06,-85.14137268066406,-101.28173828125,-0.49678951501846313,-0.9435632824897766,89.8427963256836,-0.0007018437026999891,0.699999988079071,-4.768371808516747e-10,0.0,False,False,False,1
18155907.0651291,0.009297139011323452,3.3887109756469727,-0.0782865360379219,0.004051053896546364,1.4827823638916016,-0.07001693546772003,0.03278929740190506,-0.00010347687202738598,-9.927024535727469e-08,-85.14080810546875,-101.0748291015625,-0.5015626549720764,-0.9455850124359131,89.84280395507812,-0.0007018441101536155,0.699999988079071,-4.768371808516747e-10,0.0,False,False,False,1
18155907.0651291,0.009297139011323452,3.3887109756469727,-0.0782865360379219,0.004051053896546364,1.4827823638916016,-0.07001693546772003,0.03278929740190506,-0.00010347687202738598,-9.927024535727469e-08,-85.14080810546875,-101.0748291015625,-0.5015626549720764,-0.9455850124359131,89.84280395507812,-0.0007018441101536155,0.699999988079071,-4.768371808516747e-10,0.0,False,False,False,1
18155907.152858898,0.009906578809022903,3.6110832691192627,-0.08294568210840225,0.006946900859475136,2.5347840785980225,-0.0531088151037693,0.16572880744934082,-0.0004851265111938119,3.1850566983848694e-07,-85.13990020751953,-100.74312591552734,-0.5093355178833008,-0.9339600205421448,89.84280395507812,-0.0007018417818471789,0.699999988079071,-4.768371808516747e-10,0.0,False,False,False,1
18155907.2253251,0.010486641898751259,3.822655439376831,-0.08688436448574066,0.008044431917369366,2.9341254234313965,-0.05462244153022766,0.18473400175571442,-0.0006054941914044321,1.6263355746559682e-06,-85.13899993896484,-100.41535949707031,-0.516927182674408,-0.9179978370666504,89.84280395507812,-0.0007018920150585473,0.699999988079071,-4.768371808516747e-10,0.0,False,False,False,1
18155907.2937776,0.01063523255288601,3.8800418376922607,-0.08841928094625473,0.002159010386094451,0.8338198065757751,-0.022302214056253433,-0.3719539940357208,0.0011287867091596127,0.000251982914051041,-85.13822174072266,-100.13578033447266,-0.5232338905334473,-0.9226628541946411,89.8427963256836,-0.000701892888173461,0.0,3.456711738181184e-06,0.8913045525550842,False,False,False,1
18155907.383496,0.010627309791743755,3.875762939453125,-0.08809950947761536,-8.831594459479675e-05,-0.04769737645983696,0.0035645298194140196,-0.6426559686660767,0.0016725481254979968,0.00011285072105238214,-85.13748931884766,-99.86992645263672,-0.5287984609603882,-0.9646890163421631,89.8427963256836,-0.0007019013864919543,0.699999988079071,1.072645204658329e-06,0.0,False,False,False,1
18155907.383496,0.010627309791743755,3.875762939453125,-0.08809950947761536,-8.831594459479675e-05,-0.04769737645983696,0.0035645298194140196,-0.6426559686660767,0.0016725481254979968,0.00011285072105238214,-85.13748931884766,-99.86992645263672,-0.5287984609603882,-0.9646890163421631,89.8427963256836,-0.0007019013864919543,0.699999988079071,1.072645204658329e-06,0.0,False,False,False,1
18155907.455003,0.010828387923538685,3.9493892192840576,-0.09082593768835068,0.002812375780194998,1.0297726392745972,-0.03813314065337181,-0.38345247507095337,0.0010258181719109416,9.361283446196467e-05,-85.13652801513672,-99.5195083618164,-0.5363710522651672,-1.011933445930481,89.8427963256836,-0.0007018580217845738,0.699999988079071,1.0727643484642613e-06,0.0,False,False,False,1
18155907.455003,0.010828387923538685,3.9493892192840576,-0.09082593768835068,0.002812375780194998,1.0297726392745972,-0.03813314065337181,-0.38345247507095337,0.0010258181719109416,9.361283446196467e-05,-85.13652801513672,-99.5195083618164,-0.5363710522651672,-1.011933445930481,89.8427963256836,-0.0007018580217845738,0.699999988079071,1.0727643484642613e-06,0.0,False,False,False,1
18155907.5353289,0.011136115528643131,4.061551570892334,-0.0926281064748764,0.003856815630570054,1.405754566192627,-0.022586964070796967,-0.06279321759939194,0.00010417238081572577,9.534888522466645e-05,-85.13574981689453,-99.2326431274414,-0.5427587032318115,-1.0252659320831299,89.8427963256836,-0.0007018608739599586,0.699999988079071,1.0728836059570312e-06,0.0,False,False,False,1
18155907.5991523,0.011271059513092041,4.111063003540039,-0.09493911266326904,0.002116370014846325,0.7765037417411804,-0.03624425455927849,-0.2604706287384033,0.0006064334884285927,9.710223093861714e-05,-85.13487243652344,-98.90530395507812,-0.5502556562423706,-1.0353336334228516,89.8427963256836,-0.0007018631440587342,0.0,1.0730028634498012e-06,0.17724263668060303,False,False,False,1
18155907.676868,0.011286539025604725,4.116986274719238,-0.09439057856798172,0.00019932002760469913,0.07627026736736298,0.0070631313137710094,-0.37641599774360657,0.0011221406748518348,9.340941323898733e-05,-85.1341781616211,-98.6431655883789,-0.5560400485992432,-1.0572175979614258,89.84281158447266,-0.0007019214099273086,0.6887365579605103,1.0731220072557335e-06,0.0,False,False,False,1
18155907.676868,0.011286539025604725,4.116986274719238,-0.09439057856798172,0.00019932002760469913,0.07627026736736298,0.0070631313137710094,-0.37641599774360657,0.0011221406748518348,9.340941323898733e-05,-85.1341781616211,-98.6431655883789,-0.5560400485992432,-1.0572175979614258,89.84281158447266,-0.0007019214099273086,0.6887365579605103,1.0731220072557335e-06,0.0,False,False,False,1
18155907.754763998,0.01138937845826149,4.154216766357422,-0.0946095734834671,0.0013194810599088669,0.47768574953079224,-0.0028098137117922306,-0.24024340510368347,0.0007221567211672664,9.390404011355713e-05,-85.13330078125,-98.3223876953125,-0.5630659461021423,-1.0824209451675415,89.84281921386719,-0.000701927172485739,0.6889038681983948,1.0732412647485035e-06,0.0,False,False,False,1
18155907.754763998,0.01138937845826149,4.154216766357422,-0.0946095734834671,0.0013194810599088669,0.47768574953079224,-0.0028098137117922306,-0.24024340510368347,0.0007221567211672664,9.390404011355713e-05,-85.13330078125,-98.3223876953125,-0.5630659461021423,-1.0824209451675415,89.84281921386719,-0.000701927172485739,0.6889038681983948,1.0732412647485035e-06,0.0,False,False,False,1
18155907.842666,0.011664336547255516,4.255380630493164,-0.09706149250268936,0.0031346508767455816,1.1533154249191284,-0.027953023090958595,0.0724426656961441,-0.0002461997210048139,9.852115908870474e-05,-85.13240051269531,-97.99422454833984,-0.5705059766769409,-1.0864235162734985,89.84281921386719,-0.0007019280456006527,0.6890712380409241,1.0733604085544357e-06,0.0,False,False,False,1
18155907.842666,0.011664336547255516,4.255380630493164,-0.09706149250268936,0.0031346508767455816,1.1533154249191284,-0.027953023090958595,0.0724426656961441,-0.0002461997210048139,9.852115908870474e-05,-85.13240051269531,-97.99422454833984,-0.5705059766769409,-1.0864235162734985,89.84281921386719,-0.0007019280456006527,0.6890712380409241,1.0733604085544357e-06,0.0,False,False,False,1
18155907.9014211,0.011967211961746216,4.365822792053223,-0.09911848604679108,0.005133002996444702,1.8717265129089355,-0.03486104682087898,0.11820942163467407,-0.0003202086372766644,9.992541163228452e-05,-85.13134765625,-97.6146240234375,-0.5792245864868164,-1.073691964149475,89.84281158447266,-0.0007018717587925494,0.2930290699005127,1.0734796660472057e-06,0.0,False,False,False,1
18155907.9014211,0.011967211961746216,4.365822792053223,-0.09911848604679108,0.005133002996444702,1.8717265129089355,-0.03486104682087898,0.11820942163467407,-0.0003202086372766644,9.992541163228452e-05,-85.13134765625,-97.6146240234375,-0.5792245864868164,-1.073691964149475,89.84281158447266,-0.0007018717587925494,0.2930290699005127,1.0734796660472057e-06,0.0,False,False,False,1
18155907.9716639,0.012093400582671165,4.412020206451416,-0.10066306591033936,0.0018110823584720492,0.6630337834358215,-0.022168094292283058,0.024228807538747787,-0.00010161574755329639,0.00010219123942079023,-85.13064575195312,-97.3553237915039,-0.5851682424545288,-1.0707072019577026,89.84281921386719,-0.0007018710603006184,0.6101283431053162,1.073598809853138e-06,0.0,False,False,False,1
18155908.0402855,0.012303304858505726,4.48907470703125,-0.10203222930431366,0.003037121845409274,1.1149077415466309,-0.01981053501367569,0.06549471616744995,-0.000125160877360031,0.00010158988879993558,-85.12980651855469,-97.04479217529297,-0.5922343134880066,-1.0678317546844482,89.84281921386719,-0.0007019238546490669,0.6102758646011353,1.073718067345908e-06,0.0,False,False,False,1
18155908.1128223,0.01256326399743557,4.583978176116943,-0.10457021743059158,0.003588092979043722,1.3099076747894287,-0.03503064811229706,0.14117339253425598,-0.00021317432401701808,0.00010101184307131916,-85.12892150878906,-96.7306137084961,-0.5994732975959778,-1.0601204633712769,89.84281921386719,-0.0007018687319941819,0.6104233860969543,1.0738373248386779e-06,0.0,False,False,False,1
18155908.191883698,0.012865452095866203,4.6942830085754395,-0.10775717347860336,0.003818109631538391,1.3936879634857178,-0.040266796946525574,0.19184505939483643,-0.00032327158260159194,0.00010297124390490353,-85.12799835205078,-96.39363098144531,-0.6073580980300903,-1.0474504232406616,89.84281158447266,-0.0007018125033937395,0.6105709075927734,1.0739564686446101e-06,0.0,False,False,False,1
18155908.2930032,0.013212327845394611,4.8213911056518555,-0.11125044524669647,0.0034359272103756666,1.259050726890564,-0.0346020944416523,0.2044292837381363,-0.000512780447024852,0.00010853649291675538,-85.12696838378906,-96.01593780517578,-0.6162976622581482,-1.031406283378601,89.84280395507812,-0.0007018088945187628,0.6107184290885925,1.0740757261373801e-06,0.0,False,False,False,1
18155908.3772801,0.013664164580404758,4.986317157745361,-0.11452134698629379,0.005352037958800793,1.9535608291625977,-0.038744062185287476,0.17793813347816467,-0.0004311207158025354,0.00011191337398486212,-85.12562561035156,-95.52399444580078,-0.6278771162033081,-1.0122066736221313,89.84276580810547,-0.0007018580799922347,0.6108659505844116,1.0741948699433124e-06,0.0,False,False,False,1
18155908.3772801,0.013664164580404758,4.986317157745361,-0.11452134698629379,0.005352037958800793,1.9535608291625977,-0.038744062185287476,0.17793813347816467,-0.0004311207158025354,0.00011191337398486212,-85.12562561035156,-95.52399444580078,-0.6278771162033081,-1.0122066736221313,89.84276580810547,-0.0007018580799922347,0.6108659505844116,1.0741948699433124e-06,0.0,False,False,False,1
18155908.4839289,0.014044204726815224,5.1253790855407715,-0.10514723509550095,0.0035706113558262587,1.3065359592437744,0.08807308971881866,0.3101024031639099,-0.0011683431221172214,0.0001224103179993108,-85.12445068359375,-95.095947265625,-0.6368752717971802,-0.989953875541687,89.84278106689453,-0.0007019066251814365,0.6110135316848755,1.0743141274360823e-06,0.0,False,False,False,1
18155908.4839289,0.014044204726815224,5.1253790855407715,-0.10514723509550095,0.0035706113558262587,1.3065359592437744,0.08807308971881866,0.3101024031639099,-0.0011683431221172214,0.0001224103179993108,-85.12445068359375,-95.095947265625,-0.6368752717971802,-0.989953875541687,89.84278106689453,-0.0007019066251814365,0.6110135316848755,1.0743141274360823e-06,0.0,False,False,False,1
18155908.5957049,0.014493108727037907,5.289047718048096,-0.11149335652589798,0.0040425523184239864,1.4738986492156982,-0.0571492500603199,0.34134840965270996,-0.000803209375590086,0.00013157185458112508,-85.1230239868164,-94.573486328125,-0.6481568813323975,-0.9562332630157471,89.84278106689453,-0.0007018996402621269,0.6111610531806946,1.0744332712420146e-06,0.0,False,False,False,1
18155908.5957049,0.014493108727037907,5.289047718048096,-0.11149335652589798,0.0040425523184239864,1.4738986492156982,-0.0571492500603199,0.34134840965270996,-0.000803209375590086,0.00013157185458112508,-85.1230239868164,-94.573486328125,-0.6481568813323975,-0.9562332630157471,89.84278106689453,-0.0007018996402621269,0.6111610531806946,1.0744332712420146e-06,0.0,False,False,False,1
18155908.6845007,0.014930454082787037,5.449294090270996,-0.11580999195575714,0.004879148211330175,1.7877538204193115,-0.04815760254859924,0.3124545216560364,-0.0006696311174891889,0.0003336096415296197,-85.1215591430664,-94.03477478027344,-0.6599382758140564,-0.9231273531913757,89.84278106689453,-0.0007018930045887828,0.6113085746765137,1.0745525287347846e-06,0.0,False,False,False,1
18155908.9202588,0.014345862902700901,5.23331356048584,-0.11140606552362442,-0.005910215899348259,-2.134976387023926,0.04568774253129959,-0.843977153301239,0.0023277709260582924,-3.398160697543062e-05,-85.11875915527344,-93.0157241821289,-0.6806012392044067,-1.0160452127456665,89.84273529052734,-0.0007019122713245451,0.3112902343273163,1.6689301052252858e-09,0.0,False,False,False,1
18155908.9202588,0.014345862902700901,5.23331356048584,-0.11140606552362442,-0.005910215899348259,-2.134976387023926,0.04568774253129959,-0.843977153301239,0.0023277709260582924,-3.398160697543062e-05,-85.11875915527344,-93.0157241821289,-0.6806012392044067,-1.0160452127456665,89.84273529052734,-0.0007019122713245451,0.3112902343273163,1.6689301052252858e-09,0.0,False,False,False,1
18155909.0133052,0.014193707145750523,5.177994251251221,-0.11022088676691055,-0.001636791042983532,-0.595088541507721,0.012749369256198406,-0.34391701221466064,0.0010461816564202309,-4.8376818995166104e-06,-85.11750030517578,-92.55638122558594,-0.6899003982543945,-1.0592597723007202,89.84274291992188,-0.0007019218755885959,0.31136271357536316,1.6689301052252858e-09,0.0,False,False,False,1
18155909.1400286,0.01400778815150261,5.110360145568848,-0.10572655498981476,-0.0014641560846939683,-0.5326346158981323,0.03539392724633217,-0.3107246458530426,0.0009271585149690509,-2.0126226445427164e-06,-85.1162109375,-92.078369140625,-0.699640691280365,-1.0846203565597534,89.84274291992188,-0.0007018209435045719,0.3114352226257324,1.6689301052252858e-09,0.0,False,False,False,1
18155909.247426398,0.013395358808338642,4.8908915519714355,-0.10360030084848404,-0.005708636250346899,-2.045732021331787,0.01981944777071476,-0.5584121346473694,0.0015298195648938417,0.0003219523932784796,-85.11483001708984,-91.57827758789062,-0.7095744013786316,-1.1325682401657104,89.8427505493164,-0.0007019390468485653,0.0,3.458857463556342e-06,0.435067743062973,False,False,False,1
18155909.247426398,0.013395358808338642,4.8908915519714355,-0.10360030084848404,-0.005708636250346899,-2.045732021331787,0.01981944777071476,-0.5584121346473694,0.0015298195648938417,0.0003219523932784796,-85.11483001708984,-91.57827758789062,-0.7095744013786316,-1.1325682401657104,89.8427505493164,-0.0007019390468485653,0.0,3.458857463556342e-06,0.435067743062973,False,False,False,1
18155909.3526746,0.012926619499921799,4.7181878089904785,-0.08386717736721039,-0.004464434459805489,-1.6448899507522583,0.18794506788253784,-0.01674233376979828,0.00023329051327891648,0.0001230307389050722,-85.11353302001953,-91.10086822509766,-0.7182988524436951,-1.1604286432266235,89.84278106689453,-0.0007018925389274955,0.16219790279865265,1.0747909300334868e-06,0.0,False,False,False,1
18155909.446431,0.012720969505608082,4.6390838623046875,-0.07775387912988663,-0.0021844194270670414,-0.8402441143989563,0.0649356096982956,0.5281184315681458,-0.001371762715280056,-0.00020858347124885768,-85.11224365234375,-90.63449096679688,-0.7265717387199402,-1.131960391998291,89.8427505493164,-0.0007019388722255826,0.6965312957763672,-2.3822783532523317e-06,0.0,False,False,False,1
18155909.446431,0.012720969505608082,4.6390838623046875,-0.07775387912988663,-0.0021844194270670414,-0.8402441143989563,0.0649356096982956,0.5281184315681458,-0.001371762715280056,-0.00020858347124885768,-85.11224365234375,-90.63449096679688,-0.7265717387199402,-1.131960391998291,89.8427505493164,-0.0007019388722255826,0.6965312957763672,-2.3822783532523317e-06,0.0,False,False,False,1
18155909.5479965,0.012735649012029171,4.646461486816406,-0.07683593779802322,0.00014436482160817832,0.07255485653877258,0.009027445688843727,0.8551818132400513,-0.0021985850762575865,-2.17357519431971e-05,-85.1110610961914,-90.19642639160156,-0.7345810532569885,-1.059048056602478,89.8427505493164,-0.0007018684409558773,0.2691759467124939,1.907348723406699e-09,0.0,False,False,False,1
18155909.5479965,0.012735649012029171,4.646461486816406,-0.07683593779802322,0.00014436482160817832,0.07255485653877258,0.009027445688843727,0.8551818132400513,-0.0021985850762575865,-2.17357519431971e-05,-85.1110610961914,-90.19642639160156,-0.7345810532569885,-1.059048056602478,89.8427505493164,-0.0007018684409558773,0.2691759467124939,1.907348723406699e-09,0.0,False,False,False,1
18155909.634697698,0.012670793570578098,4.623119354248047,-0.07804441452026367,-0.0007494021556340158,-0.2697174549102783,-0.013963902369141579,0.7539035677909851,-0.002055509714409709,-2.2080739654484205e-06,-85.10977172851562,-89.73212432861328,-0.7433102130889893,-0.9779327511787415,89.8427505493164,-0.0007019041222520173,0.26923784613609314,1.907348723406699e-09,0.0,False,False,False,1
18155909.634697698,0.012670793570578098,4.623119354248047,-0.07804441452026367,-0.0007494021556340158,-0.2697174549102783,-0.013963902369141579,0.7539035677909851,-0.002055509714409709,-2.2080739654484205e-06,-85.10977172851562,-89.73212432861328,-0.7433102130889893,-0.9779327511787415,89.8427505493164,-0.0007019041222520173,0.26923784613609314,1.907348723406699e-09,0.0,False,False,False,1
18155909.7741788,0.012669038027524948,4.622474670410156,-0.07719723880290985,-1.2616391359188128e-05,-0.004633086733520031,0.006088315509259701,0.7661628723144531,-0.001974593847990036,-2.5117421955656027e-06,-85.10865783691406,-89.33197784423828,-0.7505822777748108,-0.914910614490509,89.84274291992188,-0.0007018913747742772,0.699999988079071,1.907348723406699e-09,0.0,False,False,False,1
18155909.7741788,0.012669038027524948,4.622474670410156,-0.07719723880290985,-1.2616391359188128e-05,-0.004633086733520031,0.006088315509259701,0.7661628723144531,-0.001974593847990036,-2.5117421955656027e-06,-85.10865783691406,-89.33197784423828,-0.7505822777748108,-0.914910614490509,89.84274291992188,-0.0007018913747742772,0.699999988079071,1.907348723406699e-09,0.0,False,False,False,1
18155909.8477092,0.012826059944927692,4.679933071136475,-0.08101926743984222,0.0021265647374093533,0.7781652808189392,-0.05176214128732681,0.8457607626914978,-0.002268333686515689,-9.540874543745304e-07,-85.10736846923828,-88.86539459228516,-0.759624183177948,-0.830469012260437,89.84274291992188,-0.0007018756587058306,0.4040079712867737,1.907348723406699e-09,0.0,False,False,False,1
18155909.8477092,0.012826059944927692,4.679933071136475,-0.08101926743984222,0.0021265647374093533,0.7781652808189392,-0.05176214128732681,0.8457607626914978,-0.002268333686515689,-9.540874543745304e-07,-85.10736846923828,-88.86539459228516,-0.759624183177948,-0.830469012260437,89.84274291992188,-0.0007018756587058306,0.4040079712867737,1.907348723406699e-09,0.0,False,False,False,1
18155909.9509556,0.012914862483739853,4.712467193603516,-0.0759446769952774,0.0008646739879623055,0.31678611040115356,0.04941149801015854,0.5288987159729004,-0.0014032438630238175,-3.0195849376468686e-07,-85.1064224243164,-88.51783752441406,-0.7658955454826355,-0.7794542908668518,89.84274291992188,-0.0007019468466751277,0.40410348773002625,1.907348723406699e-09,0.0,False,False,False,1
18155910.0419809,0.013016341254115105,4.749233245849609,-0.0753178820014,0.0011096966918557882,0.4020463228225708,0.006854166276752949,0.20550371706485748,-0.0005115556414239109,1.2809747040876118e-08,-85.10513305664062,-88.04405212402344,-0.7739154100418091,-0.747249960899353,89.84276580810547,-0.0007019416661933064,0.4041990041732788,1.907348723406699e-09,0.0,False,False,False,1
18155910.1193926,0.01309200469404459,4.776636123657227,-0.062151215970516205,0.0009786461014300585,0.3544343411922455,0.17030030488967896,0.3797520697116852,-0.0010632788762450218,4.88743523874291e-07,-85.10395050048828,-87.60797882080078,-0.7802841663360596,-0.719423770904541,89.8427505493164,-0.0007019105833023787,0.40429452061653137,1.907348723406699e-09,0.0,False,False,False,1
18155910.2137932,0.013149088248610497,4.797660827636719,-0.05916069447994232,0.0006030052900314331,0.22209563851356506,0.0315905399620533,0.4400081932544708,-0.0010962600354105234,-1.830586370488163e-06,-85.1029281616211,-87.23735046386719,-0.7852998375892639,-0.6869189143180847,89.84276580810547,-0.0007019056938588619,0.40439003705978394,1.907348723406699e-09,0.0,False,False,False,1
18155910.3047306,0.013215679675340652,4.82219934463501,-0.05860130488872528,0.0007313761161640286,0.26950743794441223,0.006143796723335981,0.46155881881713867,-0.0012042768066748977,-9.778769936019671e-07,-85.10169982910156,-86.7813720703125,-0.7913499474525452,-0.6437999606132507,89.84276580810547,-0.0007019529002718627,0.4044855535030365,1.907348723406699e-09,0.0,False,False,False,1
18155910.3890474,0.013278275728225708,4.8449554443359375,-0.05872812494635582,0.0007401921902783215,0.26908862590789795,-0.0014996347017586231,0.4622288644313812,-0.0012716809287667274,2.755818684363476e-07,-85.1004638671875,-86.3406753540039,-0.7971175312995911,-0.6016508340835571,89.84276580810547,-0.000701947312336415,0.40458106994628906,1.907348723406699e-09,0.0,False,False,False,1
18155910.3890474,0.013278275728225708,4.8449554443359375,-0.05872812494635582,0.0007401921902783215,0.26908862590789795,-0.0014996347017586231,0.4622288644313812,-0.0012716809287667274,2.755818684363476e-07,-85.1004638671875,-86.3406753540039,-0.7971175312995911,-0.6016508340835571,89.84276580810547,-0.000701947312336415,0.40458106994628906,1.907348723406699e-09,0.0,False,False,False,1
18155910.4901885,0.013334987685084343,4.865508556365967,-0.059200190007686615,0.0005627581849694252,0.20395049452781677,-0.004684346728026867,0.4583665132522583,-0.0012738130753859878,4.2424966295584454e-07,-85.09934997558594,-85.92952728271484,-0.8024826049804688,-0.5627461075782776,89.8427734375,-0.0007019158219918609,0.4046765863895416,1.907348723406699e-09,0.0,False,False,False,1
18155910.4901885,0.013334987685084343,4.865508556365967,-0.059200190007686615,0.0005627581849694252,0.20395049452781677,-0.004684346728026867,0.4583665132522583,-0.0012738130753859878,4.2424966295584454e-07,-85.09934997558594,-85.92952728271484,-0.8024826049804688,-0.5627461075782776,89.8427734375,-0.0007019158219918609,0.4046765863895416,1.907348723406699e-09,0.0,False,False,False,1
18155910.5670647,0.013399844989180565,4.88917875289917,-0.06192564219236374,0.0008438907098025084,0.30798473954200745,-0.035462215542793274,0.45393285155296326,-0.0012313781771808863,1.7730241097524413e-07,-85.09800720214844,-85.44112396240234,-0.8092385530471802,-0.5171818733215332,89.84278869628906,-0.0007019105250947177,0.4047721028327942,1.907348723406699e-09,0.0,False,False,False,1
18155910.6599666,0.01340344175696373,4.886722564697266,-0.06048313155770302,3.868557178066112e-05,-0.026417898014187813,0.01551513746380806,0.36047789454460144,-0.001001194235868752,-0.00030249819974415004,-85.09697723388672,-85.06490325927734,-0.8142112493515015,-0.48568105697631836,89.84278106689453,-0.0007019071490503848,0.22721946239471436,-3.4552813303889707e-06,0.0,False,False,False,1
18155910.7875593,0.013338159769773483,4.864391803741455,-0.055364131927490234,-0.0005183093016967177,-0.17729608714580536,0.04064252972602844,-0.022397169843316078,9.490616503171623e-05,-0.0001304870384046808,-85.09574890136719,-84.61175537109375,-0.8196924924850464,-0.47439077496528625,89.8427734375,-0.0007019327022135258,0.3694175183773041,-1.071214683179278e-06,0.0,False,False,False,1
18155910.7875593,0.013338159769773483,4.864391803741455,-0.055364131927490234,-0.0005183093016967177,-0.17729608714580536,0.04064252972602844,-0.022397169843316078,9.490616503171623e-05,-0.0001304870384046808,-85.09574890136719,-84.61175537109375,-0.8196924924850464,-0.47439077496528625,89.8427734375,-0.0007019327022135258,0.3694175183773041,-1.071214683179278e-06,0.0,False,False,False,1
18155910.8893154,0.013307197019457817,4.852627754211426,-0.048244740813970566,-0.0002987981715705246,-0.11352597922086716,0.06870388239622116,0.03575583174824715,-2.5301881123596104e-06,-0.00011283691128483042,-85.09440612792969,-84.1260986328125,-0.8250251412391663,-0.48108434677124023,89.84274291992188,-0.0007019334007054567,0.3695041537284851,-1.071333940672048e-06,0.0,False,False,False,1
18155910.8893154,0.013307197019457817,4.852627754211426,-0.048244740813970566,-0.0002987981715705246,-0.11352597922086716,0.06870388239622116,0.03575583174824715,-2.5301881123596104e-06,-0.00011283691128483042,-85.09440612792969,-84.1260986328125,-0.8250251412391663,-0.48108434677124023,89.84274291992188,-0.0007019334007054567,0.3695041537284851,-1.071333940672048e-06,0.0,False,False,False,1
18155910.9649092,0.013285458087921143,4.844465255737305,-0.03830521181225777,-0.00028844785992987454,-0.10830593854188919,0.1318848580121994,0.30573439598083496,-0.000750613515265286,-0.00011183688911842182,-85.09305572509766,-83.64112091064453,-0.8294087052345276,-0.4599858820438385,89.84275817871094,-0.0007019312470220029,0.36959078907966614,-1.0714530844779802e-06,0.0,False,False,False,1
18155910.9649092,0.013285458087921143,4.844465255737305,-0.03830521181225777,-0.00028844785992987454,-0.10830593854188919,0.1318848580121994,0.30573439598083496,-0.000750613515265286,-0.00011183688911842182,-85.09305572509766,-83.64112091064453,-0.8294087052345276,-0.4599858820438385,89.84275817871094,-0.0007019312470220029,0.36959078907966614,-1.0714530844779802e-06,0.0,False,False,False,1
18155911.0685958,0.01322958804666996,4.827784538269043,-0.03486146032810211,-0.0005396689521148801,-0.1611250787973404,0.03326444327831268,0.3451814353466034,-0.0007585987332277,0.0001858591422205791,-85.09207916259766,-83.27637481689453,-0.8323283195495605,-0.4342292547225952,89.84276580810547,-0.0007019154727458954,0.25902870297431946,2.3856161988078384e-06,0.0,False,False,False,1
18155911.1959184,0.013151535764336586,4.797503471374512,-0.03606852889060974,-0.0006154242437332869,-0.23875923454761505,-0.009517457336187363,0.3680458664894104,-0.0010740923462435603,1.630844963074196e-05,-85.09075927734375,-82.79509735107422,-0.8363743424415588,-0.39901962876319885,89.8427734375,-0.0007019256590865552,0.34762436151504517,1.4305114870438729e-09,0.0,False,False,False,1
18155911.2794703,0.01309256162494421,4.775854587554932,-0.036062102764844894,-0.0006964163039810956,-0.25564825534820557,7.588510925415903e-05,0.4148784577846527,-0.001081563881598413,3.9840389831624634e-07,-85.08946228027344,-82.31624603271484,-0.8404111862182617,-0.3593772053718567,89.84278106689453,-0.000701922457665205,0.3477054834365845,1.4305114870438729e-09,0.0,False,False,False,1
18155911.394083,0.013052030466496944,4.760893821716309,-0.0349445678293705,-0.00035350382677279413,-0.13048450648784637,0.009746893309056759,0.4406808614730835,-0.0010986638953909278,-8.177573818102246e-07,-85.08834838867188,-81.9122085571289,-0.8436686992645264,-0.3228766918182373,89.8427734375,-0.0007019064505584538,0.3477865755558014,1.4305114870438729e-09,0.0,False,False,False,1
18155911.394083,0.013052030466496944,4.760893821716309,-0.0349445678293705,-0.00035350382677279413,-0.13048450648784637,0.009746893309056759,0.4406808614730835,-0.0010986638953909278,-8.177573818102246e-07,-85.08834838867188,-81.9122085571289,-0.8436686992645264,-0.3228766918182373,89.8427734375,-0.0007019064505584538,0.3477865755558014,1.4305114870438729e-09,0.0,False,False,False,1
18155911.4977922,0.01300958264619112,4.745333671569824,-0.03789813444018364,-0.0004092208109796047,-0.15000857412815094,-0.02847403846681118,0.4541601240634918,-0.001240958459675312,-7.012679361650953e-07,-85.0870590209961,-81.43657684326172,-0.8480091691017151,-0.2778657376766205,89.84278106689453,-0.0007019168697297573,0.3478676676750183,1.4305114870438729e-09,0.0,False,False,False,1
18155911.4977922,0.01300958264619112,4.745333671569824,-0.03789813444018364,-0.0004092208109796047,-0.15000857412815094,-0.02847403846681118,0.4541601240634918,-0.001240958459675312,-7.012679361650953e-07,-85.0870590209961,-81.43657684326172,-0.8480091691017151,-0.2778657376766205,89.84278106689453,-0.0007019168697297573,0.3478676676750183,1.4305114870438729e-09,0.0,False,False,False,1
18155911.5699883,0.013053401373326778,4.7572431564331055,-0.033038172870874405,0.0006069202208891511,0.1649547517299652,0.06731388717889786,0.30230459570884705,-0.0010290462523698807,-0.00032012310111895204,-85.08576965332031,-80.96138763427734,-0.8520063757896423,-0.2386741191148758,89.84276580810547,-0.0007019147160463035,0.5013138055801392,-3.455758132986375e-06,0.0,False,False,False,1
18155911.5699883,0.013053401373326778,4.7572431564331055,-0.033038172870874405,0.0006069202208891511,0.1649547517299652,0.06731388717889786,0.30230459570884705,-0.0010290462523698807,-0.00032012310111895204,-85.08576965332031,-80.96138763427734,-0.8520063757896423,-0.2386741191148758,89.84276580810547,-0.0007019147160463035,0.5013138055801392,-3.455758132986375e-06,0.0,False,False,False,1
18155911.7169953,0.013104449957609177,4.783206939697266,-0.029114311560988426,0.000347427383530885,0.1767047792673111,0.02670508623123169,0.20655791461467743,-0.0003039091534446925,0.0002918752725236118,-85.0848388671875,-80.6166000366211,-0.8542948961257935,-0.22116151452064514,89.84280395507812,-0.0007019071490503848,0.4158300459384918,4.114091552764876e-06,0.0,False,False,False,1
18155911.8017113,0.013177337124943733,4.807471752166748,-0.01951724849641323,0.0008597587584517896,0.2862216532230377,0.11320455372333527,0.3907550871372223,-0.0010072053410112858,7.429227844113484e-05,-85.08354949951172,-80.13639831542969,-0.8571950197219849,-0.19216735661029816,89.84281921386719,-0.0007019058684818447,0.3862314820289612,5.378723244575667e-07,0.0,False,False,False,1
18155911.8928581,0.013209253549575806,4.819264888763428,-0.013001291081309319,0.000350122427335009,0.12937043607234955,0.0714799016714096,0.4501412510871887,-0.0012512527173385024,5.7424873375566676e-05,-85.08244323730469,-79.72785186767578,-0.8587489128112793,-0.1554892510175705,89.84281921386719,-0.0007019112235866487,0.38632211089134216,5.379318963605328e-07,0.0,False,False,False,1
18155912.0123634,0.013233508914709091,4.828129291534424,-0.01352505199611187,0.00020300925825722516,0.07419207692146301,-0.004383702762424946,0.4569948613643646,-0.0012796428054571152,5.533608054975048e-05,-85.08120727539062,-79.2876205444336,-0.8604704141616821,-0.11388656497001648,89.84281921386719,-0.0007019100012257695,0.38641273975372314,5.379915251069178e-07,0.0,False,False,False,1
18155912.0123634,0.013233508914709091,4.828129291534424,-0.01352505199611187,0.00020300925825722516,0.07419207692146301,-0.004383702762424946,0.4569948613643646,-0.0012796428054571152,5.533608054975048e-05,-85.08120727539062,-79.2876205444336,-0.8604704141616821,-0.11388656497001648,89.84281921386719,-0.0007019100012257695,0.38641273975372314,5.379915251069178e-07,0.0,False,False,False,1
18155912.0993298,0.01325361430644989,4.835644245147705,-0.014436698518693447,0.0002311498683411628,0.08639873564243317,-0.01048111729323864,0.4495983123779297,-0.001339383190497756,5.5227654229383916e-05,-85.07986450195312,-78.80387878417969,-0.8624657392501831,-0.06860241293907166,89.84281921386719,-0.0007019058102741838,0.3865033686161041,5.380511538533028e-07,0.0,False,False,False,1
18155912.0993298,0.01325361430644989,4.835644245147705,-0.014436698518693447,0.0002311498683411628,0.08639873564243317,-0.01048111729323864,0.4495983123779297,-0.001339383190497756,5.5227654229383916e-05,-85.07986450195312,-78.80387878417969,-0.8624657392501831,-0.06860241293907166,89.84281921386719,-0.0007019058102741838,0.3865033686161041,5.380511538533028e-07,0.0,False,False,False,1
18155912.1959458,0.013251893222332,4.833086967468262,-0.013061612844467163,-1.781369064701721e-05,-0.02646852284669876,0.014232512563467026,0.40921640396118164,-0.0012045978801324964,-0.00010107018169946969,-85.07868957519531,-78.38290405273438,-0.863930881023407,-0.03122762404382229,89.8427963256836,-0.0007019037147983909,0.3325556516647339,-1.1904835446330253e-06,0.0,False,False,False,1
18155912.1959458,0.013251893222332,4.833086967468262,-0.013061612844467163,-1.781369064701721e-05,-0.02646852284669876,0.014232512563467026,0.40921640396118164,-0.0012045978801324964,-0.00010107018169946969,-85.07868957519531,-78.38290405273438,-0.863930881023407,-0.03122762404382229,89.8427963256836,-0.0007019037147983909,0.3325556516647339,-1.1904835446330253e-06,0.0,False,False,False,1
18155912.3410152,0.01321088895201683,4.82123327255249,-0.015253003686666489,-0.0002826473501045257,-0.08170893788337708,-0.015105519443750381,0.3781959116458893,-0.0010125398403033614,0.00015128783707041293,-85.077392578125,-77.91622161865234,-0.8658342361450195,0.0061540002934634686,89.84280395507812,-0.0007019044714979827,0.3556917905807495,1.7302036212640814e-06,0.0,False,False,False,1
18155912.3410152,0.01321088895201683,4.82123327255249,-0.015253003686666489,-0.0002826473501045257,-0.08170893788337708,-0.015105519443750381,0.3781959116458893,-0.0010125398403033614,0.00015128783707041293,-85.077392578125,-77.91622161865234,-0.8658342361450195,0.0061540002934634686,89.84280395507812,-0.0007019044714979827,0.3556917905807495,1.7302036212640814e-06,0.0,False,False,False,1
18155912.4458699,0.013186088763177395,4.811025619506836,-0.014012356288731098,-0.00023652093659620732,-0.09735101461410522,0.011832131072878838,0.3093982934951782,-0.0009184991358779371,6.310390745056793e-05,-85.07604217529297,-77.43434143066406,-0.867790937423706,0.04317362233996391,89.8427963256836,-0.0007019021431915462,0.3719221353530884,5.381703545026539e-07,0.0,False,False,False,1
18155912.4458699,0.013186088763177395,4.811025619506836,-0.014012356288731098,-0.00023652093659620732,-0.09735101461410522,0.011832131072878838,0.3093982934951782,-0.0009184991358779371,6.310390745056793e-05,-85.07604217529297,-77.43434143066406,-0.867790937423706,0.04317362233996391,89.8427963256836,-0.0007019021431915462,0.3719221353530884,5.381703545026539e-07,0.0,False,False,False,1
18155912.549623,0.0131665775552392,4.803943157196045,-0.008698739111423492,-0.00018804750288836658,-0.06826022267341614,0.05121222883462906,0.035477060824632645,-6.031749217072502e-05,5.581937512033619e-05,-85.07475280761719,-76.95353698730469,-0.8689701557159424,0.055638719350099564,89.84280395507812,-0.0007019039476290345,0.3720090687274933,5.382299264056201e-07,0.0,False,False,False,1
18155912.549623,0.0131665775552392,4.803943157196045,-0.008698739111423492,-0.00018804750288836658,-0.06826022267341614,0.05121222883462906,0.035477060824632645,-6.031749217072502e-05,5.581937512033619e-05,-85.07475280761719,-76.95353698730469,-0.8689701557159424,0.055638719350099564,89.84280395507812,-0.0007019039476290345,0.3720090687274933,5.382299264056201e-07,0.0,False,False,False,1
18155912.6545117,0.013148154132068157,4.797194480895996,0.002125061582773924,-0.0001756629499141127,-0.06434702128171921,0.10320236533880234,0.212984099984169,-0.0005870824679732323,5.4849995649419725e-05,-85.0734634399414,-76.47340393066406,-0.8694594502449036,0.0637803003191948,89.8427963256836,-0.0007019023760221899,0.3720959722995758,5.38289555152005e-07,0.0,False,False,False,1
18155912.6545117,0.013148154132068157,4.797194480895996,0.002125061582773924,-0.0001756629499141127,-0.06434702128171921,0.10320236533880234,0.212984099984169,-0.0005870824679732323,5.4849995649419725e-05,-85.0734634399414,-76.47340393066406,-0.8694594502449036,0.0637803003191948,89.8427963256836,-0.0007019023760221899,0.3720959722995758,5.38289555152005e-07,0.0,False,False,False,1
18155912.7294715,0.013128131628036499,4.789814472198486,0.008324971422553062,-0.0002670507528819144,-0.09843108803033829,0.0826914831995964,0.3798227310180664,-0.001004189602099359,5.4947555327089503e-05,-85.07217407226562,-75.9937744140625,-0.8691748380661011,0.09608026593923569,89.84281921386719,-0.0007019062759354711,0.3721829056739807,5.383491270549712e-07,0.0,False,False,False,1
18155912.8188778,0.013113168068230152,4.7848052978515625,0.010592835955321789,-0.00016739485727157444,-0.056036800146102905,0.025370223447680473,0.43127456307411194,-0.0011385956313461065,5.428188160294667e-05,-85.07119750976562,-75.63456726074219,-0.8686938285827637,0.12713029980659485,89.84281921386719,-0.000701910350471735,0.37226980924606323,5.384087558013562e-07,0.0,False,False,False,1
18155912.9584908,0.013097311370074749,4.779282569885254,0.009531708434224129,-0.0001135710408561863,-0.03955565020442009,-0.0076001547276973724,0.45449069142341614,-0.0012602340430021286,5.455391146824695e-05,-85.07003021240234,-75.20671844482422,-0.8682346940040588,0.16709373891353607,89.8427963256836,-0.0007019115728326142,0.37235674262046814,5.384683845477412e-07,0.0,False,False,False,1
18155913.028233,0.013081252574920654,4.773534774780273,0.007630830630660057,-0.00023025674454402179,-0.0824139416217804,-0.02725546434521675,0.4591096043586731,-0.0012200453784316778,5.425247218227014e-05,-85.06874084472656,-74.72865295410156,-0.8680136799812317,0.2129243016242981,89.84280395507812,-0.0007019067998044193,0.37244364619255066,5.385279564507073e-07,0.0,False,False,False,1
18155913.028233,0.013081252574920654,4.773534774780273,0.007630830630660057,-0.00023025674454402179,-0.0824139416217804,-0.02725546434521675,0.4591096043586731,-0.0012200453784316778,5.425247218227014e-05,-85.06874084472656,-74.72865295410156,-0.8680136799812317,0.2129243016242981,89.84280395507812,-0.0007019067998044193,0.37244364619255066,5.385279564507073e-07,0.0,False,False,False,1
18155913.1675334,0.013070818968117237,4.769742488861084,0.00971199944615364,-7.49011232983321e-05,-0.027224186807870865,0.014940363354980946,0.4570245146751404,-0.001262329751625657,5.420424713520333e-05,-85.06781005859375,-74.39555358886719,-0.8676173090934753,0.24486227333545685,89.84280395507812,-0.0007019150070846081,0.37253057956695557,5.385875851970923e-07,0.0,False,False,False,1
18155913.1675334,0.013070818968117237,4.769742488861084,0.00971199944615364,-7.49011232983321e-05,-0.027224186807870865,0.014940363354980946,0.4570245146751404,-0.001262329751625657,5.420424713520333e-05,-85.06781005859375,-74.39555358886719,-0.8676173090934753,0.24486227333545685,89.84280395507812,-0.0007019150070846081,0.37253057956695557,5.385875851970923e-07,0.0,False,False,False,1
18155913.2407115,0.013056636787950993,4.764549255371094,0.006553282029926777,-0.00019379699369892478,-0.07096461951732635,-0.04316331446170807,0.4524479806423187,-0.0012253852328285575,5.434083141153678e-05,-85.06652069091797,-73.91841125488281,-0.86751389503479,0.2903103530406952,89.84280395507812,-0.000701904296875,0.3726174831390381,5.386471571000584e-07,0.0,False,False,False,1
18155913.3433318,0.013044863939285278,4.760349750518799,0.011665199883282185,-0.00011472577170934528,-0.04092394560575485,0.04981536045670509,0.2609216570854187,-0.0006865584291517735,5.471999611472711e-05,-85.06553649902344,-73.56963348388672,-0.8670551776885986,0.31774038076400757,89.84280395507812,-0.0007019060431048274,0.3727043867111206,5.387067858464434e-07,0.0,False,False,False,1
18155913.413966298,0.01302940584719181,4.7547688484191895,0.01339586079120636,-0.00021900121646467596,-0.07906696200370789,0.024518992751836777,0.03019414097070694,-4.394746065372601e-05,5.45874354429543e-05,-85.06424713134766,-73.09381103515625,-0.8660115599632263,0.3284023106098175,89.84280395507812,-0.0007019068580120802,0.3727913200855255,5.387663577494095e-07,0.0,False,False,False,1
18155913.5508874,0.013014146126806736,4.749196529388428,0.024930886924266815,-0.00011141938739456236,-0.040686484426259995,0.08422339707612991,0.1987614929676056,-0.0005291259731166065,5.4414143960457295e-05,-85.06331634521484,-72.75833129882812,-0.8645800352096558,0.33612725138664246,89.84280395507812,-0.0007019207114353776,0.37287822365760803,5.388259864957945e-07,0.0,False,False,False,1
18155913.6258875,0.013032736256718636,4.754251480102539,0.02924155257642269,0.00024779175873845816,0.06737850606441498,0.05745777487754822,0.4207260310649872,-0.0012512992834672332,-0.0001070027137757279,-85.06202697753906,-72.28296661376953,-0.8623101711273193,0.36964982748031616,89.84280395507812,-0.0007019098848104477,0.44152361154556274,-1.1897086551471148e-06,0.0,False,False,False,1
18155913.7612049,0.013056623749434948,4.763799667358398,0.032425571233034134,0.00017654435941949487,0.07056741416454315,0.023532001301646233,0.4892224669456482,-0.0013033475261181593,-1.6716257960069925e-05,-85.06105041503906,-71.92546081542969,-0.860258936882019,0.40492090582847595,89.8427963256836,-0.0007019261247478426,0.3867699205875397,2.3841848495465e-09,0.0,False,False,False,1
18155913.7612049,0.013056623749434948,4.763799667358398,0.032425571233034134,0.00017654435941949487,0.07056741416454315,0.023532001301646233,0.4892224669456482,-0.0013033475261181593,-1.6716257960069925e-05,-85.06105041503906,-71.92546081542969,-0.860258936882019,0.40492090582847595,89.8427963256836,-0.0007019261247478426,0.3867699205875397,2.3841848495465e-09,0.0,False,False,False,1
18155913.8472552,0.013074994087219238,4.770527362823486,0.030916249379515648,0.0002134727983502671,0.07817929238080978,-0.017539098858833313,0.4884936511516571,-0.0012838216498494148,-1.3587671219283948e-06,-85.05976104736328,-71.44812774658203,-0.8577480912208557,0.4542143940925598,89.84280395507812,-0.0007019306649453938,0.38686028122901917,2.3841848495465e-09,0.0,False,False,False,1
18155913.8472552,0.013074994087219238,4.770527362823486,0.030916249379515648,0.0002134727983502671,0.07817929238080978,-0.017539098858833313,0.4884936511516571,-0.0012838216498494148,-1.3587671219283948e-06,-85.05976104736328,-71.44812774658203,-0.8577480912208557,0.4542143940925598,89.84280395507812,-0.0007019306649453938,0.38686028122901917,2.3841848495465e-09,0.0,False,False,False,1
18155913.9210736,0.013083146885037422,4.7736029624938965,0.032225266098976135,0.00011044817074434832,0.04166598618030548,0.017733605578541756,0.4694346487522125,-0.0012486260384321213,-3.618052630827151e-07,-85.05864715576172,-71.03701782226562,-0.8553311824798584,0.495291143655777,89.8427963256836,-0.0007019348558969796,0.38695061206817627,2.3841848495465e-09,0.0,False,False,False,1
18155913.9210736,0.013083146885037422,4.7736029624938965,0.032225266098976135,0.00011044817074434832,0.04166598618030548,0.017733605578541756,0.4694346487522125,-0.0012486260384321213,-3.618052630827151e-07,-85.05864715576172,-71.03701782226562,-0.8553311824798584,0.495291143655777,89.8427963256836,-0.0007019348558969796,0.38695061206817627,2.3841848495465e-09,0.0,False,False,False,1
18155914.0089102,0.013100863434374332,4.780024528503418,0.030619896948337555,0.00020170881180092692,0.07311166822910309,-0.018277661874890327,0.4769301414489746,-0.0013499342603608966,-1.040229562931927e-06,-85.05767059326172,-70.6840591430664,-0.8534252643585205,0.5300499796867371,89.84280395507812,-0.0007019119802862406,0.42981627583503723,2.3841848495465e-09,0.0,False,False,False,1
18155914.1330407,0.013129964470863342,4.7906174659729,0.03006903827190399,0.00023443394456990063,0.08533524721860886,-0.004437641706317663,0.47918736934661865,-0.0012745680287480354,-2.467402566708188e-07,-85.05650329589844,-70.2632064819336,-0.8512192368507385,0.5723220109939575,89.8427963256836,-0.0007019436452537775,0.3956902325153351,2.3841848495465e-09,0.0,False,False,False,1
18155914.2345885,0.013152139261364937,4.79877233505249,0.032426998019218445,0.00021834757353644818,0.08029820770025253,0.023218022659420967,0.24738140404224396,-0.0006095621502026916,3.5962816014034615e-07,-85.05521392822266,-69.78321838378906,-0.8487312197685242,0.611930251121521,89.84280395507812,-0.0007019486511126161,0.3957827091217041,2.3841848495465e-09,0.0,False,False,False,1
18155914.3244024,0.01316968072205782,4.805075168609619,0.03681661933660507,0.0001954929030034691,0.07024268060922623,0.048920657485723495,0.019237179309129715,3.806904487646534e-06,-1.1589655457555637e-07,-85.05392456054688,-69.3028564453125,-0.8452937602996826,0.6213901042938232,89.84280395507812,-0.0007019498734734952,0.3958751857280731,2.3841848495465e-09,0.0,False,False,False,1
18155914.4108406,0.013176320120692253,4.807559013366699,0.050153180956840515,7.674061635043472e-05,0.02870919369161129,0.1541488915681839,0.26240959763526917,-0.0006975165451876819,-6.062569468667789e-07,-85.05274963378906,-68.87141418457031,-0.8413171768188477,0.6355149149894714,89.84280395507812,-0.0007018984761089087,0.39596766233444214,2.3841848495465e-09,0.0,False,False,False,1
18155914.4108406,0.013176320120692253,4.807559013366699,0.050153180956840515,7.674061635043472e-05,0.02870919369161129,0.1541488915681839,0.26240959763526917,-0.0006975165451876819,-6.062569468667789e-07,-85.05274963378906,-68.87141418457031,-0.8413171768188477,0.6355149149894714,89.84280395507812,-0.0007018984761089087,0.39596766233444214,2.3841848495465e-09,0.0,False,False,False,1
18155914.5040833,0.01318130549043417,4.809320449829102,0.05408801883459091,5.3472791478270665e-05,0.01889306679368019,0.0422048456966877,0.3800514340400696,-0.0010242057032883167,-2.3311960717364855e-07,-85.05162811279297,-68.455078125,-0.8370375037193298,0.6648369431495667,89.84280395507812,-0.0007019024924375117,0.39606013894081116,2.3841848495465e-09,0.0,False,False,False,1
18155914.5040833,0.01318130549043417,4.809320449829102,0.05408801883459091,5.3472791478270665e-05,0.01889306679368019,0.0422048456966877,0.3800514340400696,-0.0010242057032883167,-2.3311960717364855e-07,-85.05162811279297,-68.455078125,-0.8370375037193298,0.6648369431495667,89.84280395507812,-0.0007019024924375117,0.39606013894081116,2.3841848495465e-09,0.0,False,False,False,1
18155914.5867307,0.013186469674110413,4.811249732971191,0.0540023036301136,6.247786950552836e-05,0.02334105782210827,-0.0010370087111368775,0.43140000104904175,-0.0012065093033015728,-2.8187810130475555e-07,-85.05039978027344,-68.00618743896484,-0.8324716687202454,0.7034342885017395,89.84280395507812,-0.0007019348558969796,0.39615264534950256,2.3841848495465e-09,0.0,False,False,False,1
18155914.5867307,0.013186469674110413,4.811249732971191,0.0540023036301136,6.247786950552836e-05,0.02334105782210827,-0.0010370087111368775,0.43140000104904175,-0.0012065093033015728,-2.8187810130475555e-07,-85.05039978027344,-68.00618743896484,-0.8324716687202454,0.7034342885017395,89.84280395507812,-0.0007019348558969796,0.39615264534950256,2.3841848495465e-09,0.0,False,False,False,1
18155914.6963257,0.013158162124454975,4.801032543182373,0.053331274539232254,-0.00025830272352322936,-0.09323053061962128,-0.006123053375631571,0.39624881744384766,-0.001131368917413056,-1.0031116062236833e-06,-85.04932403564453,-67.6084976196289,-0.8284642100334167,0.737960934638977,89.8427963256836,-0.000701966870110482,0.30902618169784546,2.3841848495465e-09,0.0,False,False,False,1
18155914.7802335,0.013103043660521507,4.78090238571167,0.05312211439013481,-0.0006571594858542085,-0.24000531435012817,-0.0024937482085078955,0.3794602155685425,-0.0010592020116746426,-5.66801929835492e-07,-85.04803466796875,-67.1292495727539,-0.8235558867454529,0.775779664516449,89.84280395507812,-0.0007019463228061795,0.378885954618454,2.3841848495465e-09,0.0,False,False,False,1
18155914.8816708,0.013072025030851364,4.769466876983643,0.05427868291735649,-0.0003056580026168376,-0.1126856580376625,0.011396842077374458,0.4034739136695862,-0.0010324034374207258,1.3422832125797868e-06,-85.04692077636719,-66.72850036621094,-0.8192507028579712,0.8087558150291443,89.84282684326172,-0.0007018718170002103,0.3789740800857544,2.3841848495465e-09,0.0,False,False,False,1
18155914.8816708,0.013072025030851364,4.769466876983643,0.05427868291735649,-0.0003056580026168376,-0.1126856580376625,0.011396842077374458,0.4034739136695862,-0.0010324034374207258,1.3422832125797868e-06,-85.04692077636719,-66.72850036621094,-0.8192507028579712,0.8087558150291443,89.84282684326172,-0.0007018718170002103,0.3789740800857544,2.3841848495465e-09,0.0,False,False,False,1
18155914.9623632,0.01304301992058754,4.7590131759643555,0.05107125639915466,-0.00035945058334618807,-0.12954920530319214,-0.03974856063723564,0.4280869662761688,-0.0011649003718048334,1.9386868643778143e-07,-85.0456314086914,-66.25173950195312,-0.8146483898162842,0.8506044149398804,89.84283447265625,-0.0007018792093731463,0.3790622055530548,2.3841848495465e-09,0.0,False,False,False,1
18155914.9623632,0.01304301992058754,4.7590131759643555,0.05107125639915466,-0.00035945058334618807,-0.12954920530319214,-0.03974856063723564,0.4280869662761688,-0.0011649003718048334,1.9386868643778143e-07,-85.0456314086914,-66.25173950195312,-0.8146483898162842,0.8506044149398804,89.84283447265625,-0.0007018792093731463,0.3790622055530548,2.3841848495465e-09,0.0,False,False,False,1
18155915.0623767,0.013021177612245083,4.750977516174316,0.05726592242717743,-0.0002183894393965602,-0.08034422248601913,0.0619371198117733,0.12451852858066559,-0.0003540350589901209,5.884397324962265e-08,-85.0445556640625,-65.86792755126953,-0.8103502988815308,0.8684448599815369,89.84283447265625,-0.0007018825272098184,0.3791503310203552,2.3841848495465e-09,0.0,False,False,False,1
18155915.0623767,0.013021177612245083,4.750977516174316,0.05726592242717743,-0.0002183894393965602,-0.08034422248601913,0.0619371198117733,0.12451852858066559,-0.0003540350589901209,5.884397324962265e-08,-85.0445556640625,-65.86792755126953,-0.8103502988815308,0.8684448599815369,89.84283447265625,-0.0007018825272098184,0.3791503310203552,2.3841848495465e-09,0.0,False,False,False,1
18155915.1975062,0.013030081987380981,4.750083923339844,0.06150444969534874,6.589468102902174e-05,-0.006612818222492933,0.031366199254989624,0.08736087381839752,-0.0003355492081027478,-0.0003222823143005371,-85.04326629638672,-65.3929214477539,-0.8045571446418762,0.8744144439697266,89.84281921386719,-0.0007018569740466774,0.42041540145874023,-3.4548043004178908e-06,0.0,False,False,False,1
18155915.1975062,0.013030081987380981,4.750083923339844,0.06150444969534874,6.589468102902174e-05,-0.006612818222492933,0.031366199254989624,0.08736087381839752,-0.0003355492081027478,-0.0003222823143005371,-85.04326629638672,-65.3929214477539,-0.8045571446418762,0.8744144439697266,89.84281921386719,-0.0007018569740466774,0.42041540145874023,-3.4548043004178908e-06,0.0,False,False,False,1
18155915.282299,0.01303125824779272,4.752197265625,0.06668505072593689,1.3872860108676832e-05,0.024924838915467262,0.061100203543901443,0.18794716894626617,-0.000498564331792295,-0.00012613137369044125,-85.04197692871094,-64.9175796508789,-0.7982221841812134,0.8900623917579651,89.84280395507812,-0.0007018866017460823,0.3875656723976135,-1.0707378805818735e-06,0.0,False,False,False,1
18155915.282299,0.01303125824779272,4.752197265625,0.06668505072593689,1.3872860108676832e-05,0.024924838915467262,0.061100203543901443,0.18794716894626617,-0.000498564331792295,-0.00012613137369044125,-85.04197692871094,-64.9175796508789,-0.7982221841812134,0.8900623917579651,89.84280395507812,-0.0007018866017460823,0.3875656723976135,-1.0707378805818735e-06,0.0,False,False,False,1
18155915.371349,0.013029621914029121,4.751275062561035,0.06922798603773117,-1.8375656509306282e-05,-0.010356131009757519,0.02855658531188965,0.21081292629241943,-0.00048057016101665795,-0.00010947966075036675,-85.0408706665039,-64.5145034790039,-0.7924742698669434,0.9073359370231628,89.84280395507812,-0.0007018899195827544,0.3876558542251587,-1.0708570243878057e-06,0.0,False,False,False,1
18155915.4869864,0.013025681488215923,4.749145030975342,0.06753701716661453,-3.40762926498428e-05,-0.01842023804783821,-0.014623280614614487,0.21574679017066956,-0.0006681997911073267,-0.00010960980580421165,-85.0396957397461,-64.09130859375,-0.7866467833518982,0.9264331459999084,89.84280395507812,-0.0007018936448730528,0.38774603605270386,-1.0709762818805757e-06,0.0,False,False,False,1
18155915.5585175,0.013018295168876648,4.746107578277588,0.06610723584890366,-0.00010326761548640206,-0.0424664132297039,-0.019989673048257828,0.21578779816627502,-0.0005343661177903414,-0.00010785584163386375,-85.03840637207031,-63.6163330078125,-0.7803312540054321,0.9480028748512268,89.84282684326172,-0.0007018445758149028,0.387836217880249,-1.071095425686508e-06,0.0,False,False,False,1
18155915.6639945,0.013012219220399857,4.743775367736816,0.0681571289896965,-5.7602905144449323e-05,-0.0221104733645916,0.019433969631791115,0.21558159589767456,-0.0006191686261445284,-0.00010931510769296438,-85.0374755859375,-63.27680206298828,-0.7755667567253113,0.963432252407074,89.84281921386719,-0.0007019010954536498,0.3879263997077942,-1.071214683179278e-06,0.0,False,False,False,1
18155915.7725442,0.013003519736230373,4.74052619934082,0.0655650869011879,-8.01411661086604e-05,-0.02993190661072731,-0.023878343403339386,0.21561875939369202,-0.000663053069729358,-0.00011042295955121517,-85.03618621826172,-62.802371978759766,-0.769298255443573,0.9849746823310852,89.84281921386719,-0.0007019055774435401,0.38801658153533936,-1.071333940672048e-06,0.0,False,False,False,1
18155915.8744003,0.012994327582418919,4.737076759338379,0.06762624531984329,-9.024815517477691e-05,-0.03386644646525383,0.020236359909176826,0.12486356496810913,-0.0002880473912227899,-0.00010775651026051491,-85.03489685058594,-62.32830047607422,-0.7628715634346008,1.0040855407714844,89.84281158447266,-0.000701909651979804,0.3881067633628845,-1.0714530844779802e-06,0.0,False,False,False,1
18155915.8744003,0.012994327582418919,4.737076759338379,0.06762624531984329,-9.024815517477691e-05,-0.03386644646525383,0.020236359909176826,0.12486356496810913,-0.0002880473912227899,-0.00010775651026051491,-85.03489685058594,-62.32830047607422,-0.7628715634346008,1.0040855407714844,89.84281158447266,-0.000701909651979804,0.3881067633628845,-1.0714530844779802e-06,0.0,False,False,False,1
18155915.944955,0.012985724955797195,4.73353910446167,0.06959931552410126,-0.00012194264127174392,-0.050146427005529404,0.02796836383640766,0.010587266646325588,-3.2128456950886175e-05,-0.00010810796084115282,-85.03361511230469,-61.85475540161133,-0.7560258507728577,1.0088939666748047,89.84280395507812,-0.0007018573232926428,0.3881969451904297,-1.0715723419707501e-06,0.0,False,False,False,1
18155915.944955,0.012985724955797195,4.73353910446167,0.06959931552410126,-0.00012194264127174392,-0.050146427005529404,0.02796836383640766,0.010587266646325588,-3.2128456950886175e-05,-0.00010810796084115282,-85.03361511230469,-61.85475540161133,-0.7560258507728577,1.0088939666748047,89.84280395507812,-0.0007018573232926428,0.3881969451904297,-1.0715723419707501e-06,0.0,False,False,False,1
18155916.0141376,0.012979669496417046,4.731176376342773,0.07179898768663406,-8.769698615651578e-05,-0.03421774134039879,0.031856317073106766,-0.017038023099303246,4.863069989369251e-05,-0.00010772734094643965,-85.03268432617188,-61.520931243896484,-0.7508949041366577,1.0083203315734863,89.84280395507812,-0.0007018038886599243,0.38828712701797485,-1.0716914857766824e-06,0.0,False,False,False,1
18155916.0141376,0.012979669496417046,4.731176376342773,0.07179898768663406,-8.769698615651578e-05,-0.03421774134039879,0.031856317073106766,-0.017038023099303246,4.863069989369251e-05,-0.00010772734094643965,-85.03268432617188,-61.520931243896484,-0.7508949041366577,1.0083203315734863,89.84280395507812,-0.0007018038886599243,0.38828712701797485,-1.0716914857766824e-06,0.0,False,False,False,1
18155916.1109019,0.012973404489457607,4.7289557456970215,0.07072223722934723,-6.465021579060704e-05,-0.022915257140994072,-0.011111264117062092,-0.02540551871061325,0.00011866774002555758,-0.00010708567424444482,-85.03180694580078,-61.19435501098633,-0.74595707654953,1.0067288875579834,89.84280395507812,-0.0007019102340564132,0.38837730884552,-1.0718107432694524e-06,0.0,False,False,False,1
18155916.1854619,0.01298912987112999,4.738562107086182,0.0687870979309082,0.0002109011693391949,0.12883584201335907,-0.025953145697712898,0.02553442120552063,7.64538435760187e-06,0.0002108775224769488,-85.03057098388672,-60.73572540283203,-0.7393638491630554,1.0065375566482544,89.84281921386719,-0.0007019102340564132,0.45741593837738037,2.3852587673900416e-06,0.0,False,False,False,1
18155916.2592825,0.013029281981289387,4.751497745513916,0.07042204588651657,0.0005439574597403407,0.1752445101737976,0.022149324417114258,0.04582224413752556,-0.00013095249596517533,3.297250441391952e-05,-85.02959442138672,-60.38175582885742,-0.734131395816803,1.0097136497497559,89.84281921386719,-0.0007018574979156256,0.40235355496406555,1.0728822275041239e-09,0.0,False,False,False,1
18155916.3580811,0.013053017668426037,4.760281085968018,0.07022988051176071,0.00024023003061302006,0.08889660984277725,-0.0019449149258434772,0.03215654939413071,-0.000137031776830554,5.035469712311169e-06,-85.02861785888672,-60.03059005737305,-0.7289667129516602,1.012568712234497,89.84281921386719,-0.0007019115146249533,0.4024471938610077,1.0728822275041239e-09,0.0,False,False,False,1
18155916.4443368,0.013076480478048325,4.768691539764404,0.06920115649700165,0.00027199945179745555,0.09750063717365265,-0.011925783008337021,0.009087885729968548,-5.928501195739955e-05,4.555650150450674e-07,-85.02732849121094,-59.559730529785156,-0.7222195863723755,1.0143581628799438,89.84281921386719,-0.0007019119220785797,0.40254083275794983,1.0728822275041239e-09,0.0,False,False,False,1
18155916.525089398,0.013092473149299622,4.774396896362305,0.07110222429037094,0.00019808918295893818,0.07066795974969864,0.0235470961779356,-0.003703793277963996,-7.698045010329224e-06,-4.2870257743743423e-07,-85.0262222290039,-59.1480827331543,-0.7160308957099915,1.0143581628799438,89.84281921386719,-0.0007019119220785797,0.4026344418525696,1.0728822275041239e-09,0.0,False,False,False,1
18155916.525089398,0.013092473149299622,4.774396896362305,0.07110222429037094,0.00019808918295893818,0.07066795974969864,0.0235470961779356,-0.003703793277963996,-7.698045010329224e-06,-4.2870257743743423e-07,-85.0262222290039,-59.1480827331543,-0.7160308957099915,1.0143581628799438,89.84281921386719,-0.0007019119220785797,0.4026344418525696,1.0728822275041239e-09,0.0,False,False,False,1
18155916.6265393,0.013104801066219807,4.779051303863525,0.06928946822881699,0.00012150831025792286,0.045875485986471176,-0.017867164686322212,-0.009501324035227299,6.08843356530997e-06,-8.439873795396124e-07,-85.025146484375,-58.76239776611328,-0.7104671597480774,1.0137298107147217,89.84282684326172,-0.0007018583710305393,0.4027280807495117,1.0728822275041239e-09,0.0,False,False,False,1
18155916.6265393,0.013104801066219807,4.779051303863525,0.06928946822881699,0.00012150831025792286,0.045875485986471176,-0.017867164686322212,-0.009501324035227299,6.08843356530997e-06,-8.439873795396124e-07,-85.025146484375,-58.76239776611328,-0.7104671597480774,1.0137298107147217,89.84282684326172,-0.0007018583710305393,0.4027280807495117,1.0728822275041239e-09,0.0,False,False,False,1
18155916.6879204,0.01311912015080452,4.784268379211426,0.06974752992391586,0.00023326530936174095,0.08498886227607727,0.007462062407284975,-0.011102326214313507,1.999167216126807e-05,-1.0609865057631396e-06,-85.02385711669922,-58.284183502197266,-0.7035305500030518,1.012643814086914,89.84281921386719,-0.0007018581381998956,0.40282171964645386,1.0728822275041239e-09,0.0,False,False,False,1
18155916.7704054,0.01312729436904192,4.7835235595703125,0.07121005654335022,9.909777145367116e-05,-0.00902960542589426,0.01773051917552948,-0.02812895178794861,-7.232195639517158e-05,-0.00027742437669076025,-85.02303314208984,-57.99050521850586,-0.6991246342658997,1.0114485025405884,89.84280395507812,-0.0007019112817943096,0.35454612970352173,-3.4561157917778473e-06,0.0,False,False,False,1
18155916.887122698,0.01311059296131134,4.7787251472473145,0.06970981508493423,-0.00014308704703580588,-0.04110974818468094,-0.012853115797042847,-0.04215533286333084,8.272726699942723e-05,-0.00013113374006934464,-85.02195739746094,-57.59621810913086,-0.6933572888374329,1.0081562995910645,89.84278869628906,-0.000701857206877321,0.39333078265190125,-1.0720491445681546e-06,0.0,False,False,False,1
18155916.887122698,0.01311059296131134,4.7787251472473145,0.06970981508493423,-0.00014308704703580588,-0.04110974818468094,-0.012853115797042847,-0.04215533286333084,8.272726699942723e-05,-0.00013113374006934464,-85.02195739746094,-57.59621810913086,-0.6933572888374329,1.0081562995910645,89.84278869628906,-0.000701857206877321,0.39333078265190125,-1.0720491445681546e-06,0.0,False,False,False,1
18155916.9863705,0.01310311071574688,4.775249481201172,0.06990621238946915,-7.53971326048486e-05,-0.035023611038923264,0.0019790574442595243,-0.03058040887117386,9.997914457926527e-05,-0.00011074296344304457,-85.02067565917969,-57.11859893798828,-0.6863444447517395,1.0045158863067627,89.84276580810547,-0.0007018563919700682,0.3934219777584076,-1.0721684020609246e-06,0.0,False,False,False,1
18155916.9863705,0.01310311071574688,4.775249481201172,0.06990621238946915,-7.53971326048486e-05,-0.035023611038923264,0.0019790574442595243,-0.03058040887117386,9.997914457926527e-05,-0.00011074296344304457,-85.02067565917969,-57.11859893798828,-0.6863444447517395,1.0045158863067627,89.84276580810547,-0.0007018563919700682,0.3934219777584076,-1.0721684020609246e-06,0.0,False,False,False,1
18155917.0733806,0.013099147006869316,4.773068904876709,0.07010671496391296,-4.555254054139368e-05,-0.025060061365365982,0.0023042564280331135,-0.016631262376904488,2.4488008421030827e-05,-0.00010934945021290332,-85.0193862915039,-56.64487075805664,-0.67936110496521,1.0023165941238403,89.84274291992188,-0.0007018559263087809,0.39351320266723633,-1.0722875458668568e-06,0.0,False,False,False,1
18155917.0733806,0.013099147006869316,4.773068904876709,0.07010671496391296,-4.555254054139368e-05,-0.025060061365365982,0.0023042564280331135,-0.016631262376904488,2.4488008421030827e-05,-0.00010934945021290332,-85.0193862915039,-56.64487075805664,-0.67936110496521,1.0023165941238403,89.84274291992188,-0.0007018559263087809,0.39351320266723633,-1.0722875458668568e-06,0.0,False,False,False,1
18155917.1278253,0.013069450855255127,4.767845153808594,0.07113715261220932,-0.0005454910569824278,-0.09595552086830139,0.018928194418549538,-0.023742148652672768,0.00022406627249438316,0.0003586566017474979,-85.01827239990234,-56.22977828979492,-0.6730718612670898,1.0006977319717407,89.84278106689453,-0.000732436019461602,0.36812928318977356,4.113376235181931e-06,0.0,False,False,False,1
18155917.1278253,0.013069450855255127,4.767845153808594,0.07113715261220932,-0.0005454910569824278,-0.09595552086830139,0.018928194418549538,-0.023742148652672768,0.00022406627249438316,0.0003586566017474979,-85.01827239990234,-56.22977828979492,-0.6730718612670898,1.0006977319717407,89.84278106689453,-0.000732436019461602,0.36812928318977356,4.113376235181931e-06,0.0,False,False,False,1
18155917.1981877,0.013062607496976852,4.763123512268066,0.07101119309663773,-9.725638665258884e-05,-0.06710299104452133,-0.0017901104874908924,-0.026890374720096588,4.342883130448172e-06,0.00013258468243293464,-85.01756286621094,-55.97040557861328,-0.6691621541976929,0.9992429614067078,89.8427963256836,-0.0007324356702156365,0.3885982930660248,5.371570637180412e-07,0.0,False,False,False,1
18155917.1981877,0.013062607496976852,4.763123512268066,0.07101119309663773,-9.725638665258884e-05,-0.06710299104452133,-0.0017901104874908924,-0.026890374720096588,4.342883130448172e-06,0.00013258468243293464,-85.01756286621094,-55.97040557861328,-0.6691621541976929,0.9992429614067078,89.8427963256836,-0.0007324356702156365,0.3885982930660248,5.371570637180412e-07,0.0,False,False,False,1
18155917.2935542,0.013050215318799019,4.758365631103516,0.06966910511255264,-0.0001299507130170241,-0.0498935729265213,-0.014073820784687996,-0.020299946889281273,3.536885560606606e-05,6.842189759481698e-05,-85.01663970947266,-55.63547897338867,-0.6642276048660278,0.9975900650024414,89.84280395507812,-0.000732435320969671,0.38868823647499084,5.372166356210073e-07,0.0,False,False,False,1
18155917.3664805,0.01303570345044136,4.753309726715088,0.0685054361820221,-0.00019894669821951538,-0.06931260973215103,-0.01595301739871502,-0.008675148710608482,-3.561449921107851e-05,5.5406682804459706e-05,-85.01541137695312,-55.18202590942383,-0.6577476263046265,0.996299147605896,89.84280395507812,-0.0007324350299313664,0.3887781798839569,5.372762643673923e-07,0.0,False,False,False,1
18155917.4492031,0.01302756555378437,4.750065803527832,0.07005975395441055,-9.837716788752005e-05,-0.03921504318714142,0.01878979057073593,-0.0020393691956996918,-0.0001116332205128856,5.373791645979509e-05,-85.01448059082031,-54.83544158935547,-0.6526141166687012,0.9959713220596313,89.84280395507812,-0.0007324349717237055,0.3888680934906006,5.373358931137773e-07,0.0,False,False,False,1
18155917.5466787,0.013018803671002388,4.74681282043457,0.06844978034496307,-8.989819616544992e-05,-0.03337608277797699,-0.016518564894795418,0.0022275750525295734,-9.756968211149797e-06,5.456165308714844e-05,-85.0134048461914,-54.44267272949219,-0.6470073461532593,0.9959713220596313,89.84280395507812,-0.0007324349717237055,0.38895803689956665,5.373954650167434e-07,0.0,False,False,False,1
18155917.6152861,0.013009185902774334,4.743313312530518,0.06950321793556213,-0.00014016986824572086,-0.05100201442837715,0.015352855436503887,0.0044930134899914265,-4.543039176496677e-05,5.393443279899657e-05,-85.01211547851562,-53.98021697998047,-0.6402513980865479,0.9963333010673523,89.84280395507812,-0.0007324350299313664,0.3890479803085327,5.374550937631284e-07,0.0,False,False,False,1
18155917.6812952,0.01300275418907404,4.741023540496826,0.07137804478406906,-9.743927512317896e-05,-0.03468962386250496,0.028403280302882195,0.005013389978557825,-1.182953747047577e-05,5.3793584811501205e-05,-85.01123809814453,-53.65484619140625,-0.6352975964546204,0.9966679811477661,89.84280395507812,-0.0007323817117139697,0.3891379237174988,5.375146656660945e-07,0.0,False,False,False,1
18155917.6812952,0.01300275418907404,4.741023540496826,0.07137804478406906,-9.743927512317896e-05,-0.03468962386250496,0.028403280302882195,0.005013389978557825,-1.182953747047577e-05,5.3793584811501205e-05,-85.01123809814453,-53.65484619140625,-0.6352975964546204,0.9966679811477661,89.84280395507812,-0.0007323817117139697,0.3891379237174988,5.375146656660945e-07,0.0,False,False,False,1
18155917.778927602,0.012997159734368324,4.738962173461914,0.06804957985877991,-5.7322875363752246e-05,-0.021121537312865257,-0.03410469740629196,0.004792398773133755,-2.6020406949101016e-05,5.41744775546249e-05,-85.0103759765625,-53.34198760986328,-0.6308434009552002,0.9969821572303772,89.84281158447266,-0.0007323818281292915,0.38922786712646484,5.375742944124795e-07,0.0,False,False,False,1
18155917.778927602,0.012997159734368324,4.738962173461914,0.06804957985877991,-5.7322875363752246e-05,-0.021121537312865257,-0.03410469740629196,0.004792398773133755,-2.6020406949101016e-05,5.41744775546249e-05,-85.0103759765625,-53.34198760986328,-0.6308434009552002,0.9969821572303772,89.84281158447266,-0.0007323818281292915,0.38922786712646484,5.375742944124795e-07,0.0,False,False,False,1
18155917.8828791,0.012989155016839504,4.736011028289795,0.06920819729566574,-7.703020673943684e-05,-0.028399169445037842,0.011149493046104908,0.0043465630151331425,-8.574691310059279e-05,5.291425622999668e-05,-85.00908660888672,-52.87965393066406,-0.6241162419319153,0.9974261522293091,89.84281921386719,-0.000732435320969671,0.3893177807331085,5.376338663154456e-07,0.0,False,False,False,1
18155917.8828791,0.012989155016839504,4.736011028289795,0.06920819729566574,-7.703020673943684e-05,-0.028399169445037842,0.011149493046104908,0.0043465630151331425,-8.574691310059279e-05,5.291425622999668e-05,-85.00908660888672,-52.87965393066406,-0.6241162419319153,0.9974261522293091,89.84281921386719,-0.000732435320969671,0.3893177807331085,5.376338663154456e-07,0.0,False,False,False,1
18155917.9592577,0.012981523759663105,4.733175754547119,0.06921055167913437,-9.98133109533228e-05,-0.03708406910300255,3.0794246413279325e-05,0.0037754373624920845,4.332864045863971e-05,5.499302642419934e-05,-85.00779724121094,-52.40620422363281,-0.6172250509262085,0.9978222846984863,89.84281921386719,-0.0007323820027522743,0.3894077241420746,5.376934950618306e-07,0.0,False,False,False,1
18155917.9592577,0.012981523759663105,4.733175754547119,0.06921055167913437,-9.98133109533228e-05,-0.03708406910300255,3.0794246413279325e-05,0.0037754373624920845,4.332864045863971e-05,5.499302642419934e-05,-85.00779724121094,-52.40620422363281,-0.6172250509262085,0.9978222846984863,89.84281921386719,-0.0007323820027522743,0.3894077241420746,5.376934950618306e-07,0.0,False,False,False,1
18155918.0265197,0.012975841760635376,4.731115341186523,0.07034950703382492,-8.448064181720838e-05,-0.030634472146630287,0.016934124752879143,0.0033218231983482838,-3.7487254303414375e-05,5.4248561355052516e-05,-85.00682067871094,-52.0444221496582,-0.611811101436615,0.998075008392334,89.84281921386719,-0.0007323820609599352,0.38949766755104065,5.377531238082156e-07,0.0,False,False,False,1
18155918.0989152,0.012987573631107807,4.730163097381592,0.0709754154086113,0.00016206971486099064,-0.013154755346477032,0.00864659994840622,0.006562804337590933,-0.0002449917374178767,-0.0003728725714609027,-85.00594329833984,-51.72625732421875,-0.6069846153259277,0.9984096884727478,89.84281921386719,-0.0007323821191675961,0.3978506922721863,-4.6479699449264444e-06,0.0,False,False,False,1
18155918.1608416,0.012997990474104881,4.736318111419678,0.06919553130865097,0.0001681966969044879,0.09938260912895203,-0.028739094734191895,0.03755216300487518,-4.1591888475522865e-06,-0.00015029763744678348,-85.00502014160156,-51.38363265991211,-0.6019916534423828,0.9999874234199524,89.84280395507812,-0.0007324358448386192,0.4520382881164551,-1.0718107432694524e-06,0.0,False,False,False,1
18155918.2647967,0.013023515231907368,4.745370388031006,0.0684828907251358,0.0002456124348100275,0.08710569143295288,-0.0068573965691030025,0.054772283881902695,-0.00011036919022444636,-0.00011726910452125594,-85.00419616699219,-51.08990478515625,-0.5978060364723206,1.0031771659851074,89.84280395507812,-0.0007324366015382111,0.40356817841529846,-1.0719298870753846e-06,0.0,False,False,False,1
18155918.3435415,0.01305317971855402,4.755967140197754,0.06877675652503967,0.00037656567292287946,0.13451683521270752,0.0037303788121789694,0.04021747037768364,-0.00011188678763573989,-0.00010978598584188148,-85.0029067993164,-50.61465835571289,-0.5910675525665283,1.0079923868179321,89.84280395507812,-0.0007323842728510499,0.4036615788936615,-1.0720491445681546e-06,0.0,False,False,False,1
18155918.4304142,0.013072586618363857,4.762434005737305,0.07022947818040848,0.0002233893028460443,0.0744389146566391,0.016722016036510468,0.023254990577697754,-9.012269583763555e-05,-0.00010919562191702425,-85.00188446044922,-50.239662170410156,-0.5855522155761719,1.010342001914978,89.84278869628906,-0.0007323847967199981,0.40375494956970215,-1.0721684020609246e-06,0.0,False,False,False,1
18155918.5088303,0.013090195134282112,4.768607139587402,0.07078592479228973,0.00022455402358900756,0.07872338593006134,0.007096130400896072,0.009458169341087341,-0.00010901652422035113,-0.0001105528135667555,-85.00077056884766,-49.82559585571289,-0.5793660283088684,1.011619210243225,89.84278106689453,-0.0007323851459659636,0.4038483500480652,-1.0722875458668568e-06,0.0,False,False,False,1
18155918.5917169,0.01310492493212223,4.773685932159424,0.06942562758922577,0.00017772223509382457,0.061278123408555984,-0.016412653028964996,0.0019003776833415031,4.805624485015869e-05,-0.00010826282959897071,-84.99974060058594,-49.451419830322266,-0.5739465355873108,1.011960744857788,89.84280395507812,-0.0007324385223910213,0.4039417505264282,-1.0724068033596268e-06,0.0,False,False,False,1
18155918.5917169,0.01310492493212223,4.773685932159424,0.06942562758922577,0.00017772223509382457,0.061278123408555984,-0.016412653028964996,0.0019003776833415031,4.805624485015869e-05,-0.00010826282959897071,-84.99974060058594,-49.451419830322266,-0.5739465355873108,1.011960744857788,89.84280395507812,-0.0007324385223910213,0.4039417505264282,-1.0724068033596268e-06,0.0,False,False,False,1
18155918.7148295,0.013118450529873371,4.778727054595947,0.06926961988210678,0.00010985864355461672,0.0409453883767128,-0.0012671377044171095,-0.0021714309696108103,-3.5019274946535006e-05,-0.00011030639871023595,-84.99867248535156,-49.05551528930664,-0.5682482123374939,1.011960744857788,89.84280395507812,-0.0007324385223910213,0.40403512120246887,-1.072525947165559e-06,0.0,False,False,False,1
18155918.7858663,0.013134434819221497,4.784548759460449,0.06999603658914566,0.00022499267652165145,0.0819455236196518,0.010224943049252033,-0.0039138575084507465,1.8121882021659985e-05,-0.00010949921124847606,-84.99738311767578,-48.57729721069336,-0.5612751841545105,1.011619210243225,89.84280395507812,-0.0007324384641833603,0.4041285216808319,-1.072645204658329e-06,0.0,False,False,False,1
18155918.8712542,0.013145406730473042,4.788572311401367,0.0720103457570076,0.00012851011706516147,0.047126442193984985,0.023592891171574593,-0.003950905054807663,4.7640052798669785e-05,-0.00010913114238064736,-84.99645233154297,-48.237220764160156,-0.5560969114303589,1.0113461017608643,89.84280395507812,-0.0007324384059756994,0.40422189235687256,-1.0727643484642613e-06,0.0,False,False,False,1
18155918.8712542,0.013145406730473042,4.788572311401367,0.0720103457570076,0.00012851011706516147,0.047126442193984985,0.023592891171574593,-0.003950905054807663,4.7640052798669785e-05,-0.00010913114238064736,-84.99645233154297,-48.237220764160156,-0.5560969114303589,1.0113461017608643,89.84280395507812,-0.0007324384059756994,0.40422189235687256,-1.0727643484642613e-06,0.0,False,False,False,1
18155918.935827,0.01314088050276041,4.787032127380371,0.07061118632555008,-7.009203545749187e-05,-0.023850906640291214,-0.021667035296559334,-0.029954586178064346,0.00014290050603449345,-0.00010855689470190555,-84.9953384399414,-47.82838439941406,-0.5500119924545288,1.0099663734436035,89.84280395507812,-0.0007323846803046763,0.36092451214790344,-1.0728836059570312e-06,0.0,False,False,False,1
18155919.0325425,0.013130035251379013,4.782717704772949,0.06863575428724289,-0.00011211925448151305,-0.04460291936993599,-0.020422207191586494,-0.04160277172923088,0.00010204165300820023,-0.00010919394844677299,-84.9944839477539,-47.51947021484375,-0.5455822944641113,1.0074050426483154,89.84278106689453,-0.0007323841564357281,0.39572662115097046,-1.0730028634498012e-06,0.0,False,False,False,1
18155919.1294479,0.01309641357511282,4.774352550506592,0.06957345455884933,-0.0003470248484518379,-0.08634062111377716,0.009678437374532223,-0.04844765365123749,0.0001973837788682431,0.00021099770674481988,-84.99319458007812,-47.05731201171875,-0.538833737373352,1.0030815601348877,89.84280395507812,-0.0007324365433305502,0.36851170659065247,2.3840666472096927e-06,0.0,False,False,False,1
18155919.1947,0.013076855801045895,4.765501499176025,0.06979397684335709,-0.0002996740222442895,-0.13562025129795074,0.0033789528533816338,-0.03703810274600983,4.471485681278864e-06,1.720229374768678e-05,-84.99190521240234,-46.5953254699707,-0.5320332646369934,0.9987853169441223,89.84281158447266,-0.0007324355538003147,0.390445351600647,-1.1921079401400192e-10,0.0,False,False,False,1
18155919.1947,0.013076855801045895,4.765501499176025,0.06979397684335709,-0.0002996740222442895,-0.13562025129795074,0.0033789528533816338,-0.03703810274600983,4.471485681278864e-06,1.720229374768678e-05,-84.99190521240234,-46.5953254699707,-0.5320332646369934,0.9987853169441223,89.84281158447266,-0.0007324355538003147,0.390445351600647,-1.1921079401400192e-10,0.0,False,False,False,1
18155919.2706556,0.013065989129245281,4.761558532714844,0.06969093531370163,-0.00014305950026027858,-0.05190907046198845,-0.001356539549306035,-0.022043315693736076,-3.0347940992214717e-05,2.082349055854138e-06,-84.99104309082031,-46.28449630737305,-0.5274699330329895,0.9969821572303772,89.84281158447266,-0.0007323818281292915,0.3905352056026459,-1.1921079401400192e-10,0.0,False,False,False,1
18155919.2706556,0.013065989129245281,4.761558532714844,0.06969093531370163,-0.00014305950026027858,-0.05190907046198845,-0.001356539549306035,-0.022043315693736076,-3.0347940992214717e-05,2.082349055854138e-06,-84.99104309082031,-46.28449630737305,-0.5274699330329895,0.9969821572303772,89.84281158447266,-0.0007323818281292915,0.3905352056026459,-1.1921079401400192e-10,0.0,False,False,False,1
18155919.3487502,0.013056070543825626,4.75808572769165,0.07054456323385239,-0.00012703643005806953,-0.04447939991950989,0.010933196172118187,-0.007775492034852505,-3.647671837825328e-05,-7.288625738510746e-07,-84.99006652832031,-45.92298126220703,-0.522068440914154,0.9959849715232849,89.84280395507812,-0.0007324349717237055,0.3906250596046448,-1.1921079401400192e-10,0.0,False,False,False,1
18155919.3487502,0.013056070543825626,4.75808572769165,0.07054456323385239,-0.00012703643005806953,-0.04447939991950989,0.010933196172118187,-0.007775492034852505,-3.647671837825328e-05,-7.288625738510746e-07,-84.99006652832031,-45.92298126220703,-0.522068440914154,0.9959849715232849,89.84280395507812,-0.0007324349717237055,0.3906250596046448,-1.1921079401400192e-10,0.0,False,False,False,1
18155919.4340646,0.013064882718026638,4.757438659667969,0.06970169395208359,0.00010329142969567329,-0.0075845737010240555,-0.009879647754132748,0.01058906503021717,-0.0002511579659767449,-0.00030355798662640154,-84.98904418945312,-45.55154800415039,-0.5166271328926086,0.9961761832237244,89.84280395507812,-0.0007324350299313664,0.4082031846046448,-3.4573076845845208e-06,0.0,False,False,False,1
18155919.4340646,0.013064882718026638,4.757438659667969,0.06970169395208359,0.00010329142969567329,-0.0075845737010240555,-0.009879647754132748,0.01058906503021717,-0.0002511579659767449,-0.00030355798662640154,-84.98904418945312,-45.55154800415039,-0.5166271328926086,0.9961761832237244,89.84280395507812,-0.0007324350299313664,0.4082031846046448,-3.4573076845845208e-06,0.0,False,False,False,1
18155919.4992021,0.013064185157418251,4.75868558883667,0.07046423107385635,-1.0706517059588805e-05,0.019138507544994354,0.011703809723258018,0.020338594913482666,-1.332525698671816e-05,-0.00013167293218430132,-84.98793029785156,-45.14558410644531,-0.5105832815170288,0.9977129697799683,89.84280395507812,-0.0007323820027522743,0.39430397748947144,-1.0732412647485035e-06,0.0,False,False,False,1
18155919.4992021,0.013064185157418251,4.75868558883667,0.07046423107385635,-1.0706517059588805e-05,0.019138507544994354,0.011703809723258018,0.020338594913482666,-1.332525698671816e-05,-0.00013167293218430132,-84.98793029785156,-45.14558410644531,-0.5105832815170288,0.9977129697799683,89.84280395507812,-0.0007323820027522743,0.39430397748947144,-1.0732412647485035e-06,0.0,False,False,False,1
18155919.5776153,0.013065574690699577,4.759169101715088,0.06830894201993942,1.7722666598274373e-05,0.006166917737573385,-0.027489423751831055,0.018552236258983612,-8.84231340023689e-05,-0.0001142007895396091,-84.98706817626953,-44.83551025390625,-0.5061795115470886,0.9989834427833557,89.8427963256836,-0.0007323822355829179,0.39439472556114197,-1.0733604085544357e-06,0.0,False,False,False,1
18155919.6447045,0.013066476210951805,4.759439468383789,0.06965253502130508,1.3439078429655638e-05,0.00403039064258337,0.020029112696647644,0.013891422189772129,1.0508399100217503e-05,-0.00010839805327123031,-84.98604583740234,-44.46234130859375,-0.5007368922233582,1.0002059936523438,89.84280395507812,-0.0007324358448386192,0.3944854438304901,-1.0734796660472057e-06,0.0,False,False,False,1
18155919.7090976,0.013066718354821205,4.759568214416504,0.07131007313728333,3.7600857467623428e-06,0.001999208703637123,0.02573877014219761,0.010045485571026802,-7.288163033081219e-05,-0.00011025853746104985,-84.98516082763672,-44.1430549621582,-0.4959115982055664,1.0009846687316895,89.84281158447266,-0.0007324360776692629,0.39457616209983826,-1.073598809853138e-06,0.0,False,False,False,1
18155919.7747258,0.013067000545561314,4.759681701660156,0.06826842576265335,4.300160981074441e-06,0.001729374285787344,-0.04635011404752731,0.007030361331999302,1.7210482837981544e-05,-0.00010865160584216937,-84.98430633544922,-43.83652877807617,-0.49155402183532715,1.0015037059783936,89.8427963256836,-0.0007324361940845847,0.3946669101715088,-1.073718067345908e-06,0.0,False,False,False,1
18155919.8708055,0.013066998682916164,4.759738922119141,0.06886325031518936,-1.9383533000905118e-08,0.0005954621592536569,0.006190015003085136,0.004874157719314098,-1.4330192243505735e-05,-0.00010915328311966732,-84.98344421386719,-43.52417755126953,-0.48706427216529846,1.001852035522461,89.84280395507812,-0.0007324363104999065,0.39475762844085693,-1.0738373248386779e-06,0.0,False,False,False,1
18155919.934511,0.013067609630525112,4.759848594665527,0.06982636451721191,9.604856131772976e-06,0.0017241887981072068,0.015141353011131287,0.0028882587794214487,6.569838296854869e-05,-0.00010819615999935195,-84.98221588134766,-43.066795349121094,-0.4803643822669983,1.0022072792053223,89.84280395507812,-0.0007323829922825098,0.3948483467102051,-1.0739564686446101e-06,0.0,False,False,False,1
18155919.934511,0.013067609630525112,4.759848594665527,0.06982636451721191,9.604856131772976e-06,0.0017241887981072068,0.015141353011131287,0.0028882587794214487,6.569838296854869e-05,-0.00010819615999935195,-84.98221588134766,-43.066795349121094,-0.4803643822669983,1.0022072792053223,89.84280395507812,-0.0007323829922825098,0.3948483467102051,-1.0739564686446101e-06,0.0,False,False,False,1
18155920.0333186,0.013067838735878468,4.759949684143066,0.06996025890111923,2.316575319127878e-06,0.001022155862301588,0.0013538593193516135,0.002121561672538519,2.8409851438482292e-05,-0.00010872635175473988,-84.98139190673828,-42.76401901245117,-0.4759141504764557,1.0023506879806519,89.84281158447266,-0.0007324363687075675,0.3949390649795532,-1.0740757261373801e-06,0.0,False,False,False,1
18155920.0333186,0.013067838735878468,4.759949684143066,0.06996025890111923,2.316575319127878e-06,0.001022155862301588,0.0013538593193516135,0.002121561672538519,2.8409851438482292e-05,-0.00010872635175473988,-84.98139190673828,-42.76401901245117,-0.4759141504764557,1.0023506879806519,89.84281158447266,-0.0007324363687075675,0.3949390649795532,-1.0740757261373801e-06,0.0,False,False,False,1
18155920.0976456,0.013068278320133686,4.760153770446777,0.0695892795920372,6.832866347394884e-06,0.003172303084284067,-0.005766476038843393,0.0013587032444775105,2.7931386284762993e-05,-0.00010855596337933093,-84.9801025390625,-42.293251037597656,-0.4690583050251007,1.0025010108947754,89.84281158447266,-0.0007323830504901707,0.39502978324890137,-1.0741948699433124e-06,0.0,False,False,False,1
18155920.0976456,0.013068278320133686,4.760153770446777,0.0695892795920372,6.832866347394884e-06,0.003172303084284067,-0.005766476038843393,0.0013587032444775105,2.7931386284762993e-05,-0.00010855596337933093,-84.9801025390625,-42.293251037597656,-0.4690583050251007,1.0025010108947754,89.84281158447266,-0.0007323830504901707,0.39502978324890137,-1.0741948699433124e-06,0.0,False,False,False,1
18155920.1584534,0.013069157488644123,4.760310173034668,0.07011391967535019,1.4461505998042412e-05,0.00257267733104527,0.008629842661321163,0.0011828497517853975,2.5485609512543306e-05,-0.00010835255670826882,-84.979248046875,-41.98699951171875,-0.46454307436943054,1.0025010108947754,89.84281158447266,-0.0007323830504901707,0.3951205313205719,-1.0743141274360823e-06,0.0,False,False,False,1
18155920.1584534,0.013069157488644123,4.760310173034668,0.07011391967535019,1.4461505998042412e-05,0.00257267733104527,0.008629842661321163,0.0011828497517853975,2.5485609512543306e-05,-0.00010835255670826882,-84.979248046875,-41.98699951171875,-0.46454307436943054,1.0025010108947754,89.84281158447266,-0.0007323830504901707,0.3951205313205719,-1.0743141274360823e-06,0.0,False,False,False,1
18155920.2403983,0.013069402426481247,4.7604875564575195,0.07071857154369354,2.9890879886806943e-06,0.0021646907553076744,0.00737884221598506,0.0010605446295812726,-2.2890504624228925e-05,-0.00010965814726660028,-84.97846221923828,-41.69759750366211,-0.4602241516113281,1.0025010108947754,89.84281158447266,-0.0007323830504901707,0.39521124958992004,-1.0744333849288523e-06,0.0,False,False,False,1
18155920.2403983,0.013069402426481247,4.7604875564575195,0.07071857154369354,2.9890879886806943e-06,0.0021646907553076744,0.00737884221598506,0.0010605446295812726,-2.2890504624228925e-05,-0.00010965814726660028,-84.97846221923828,-41.69759750366211,-0.4602241516113281,1.0025010108947754,89.84281158447266,-0.0007323830504901707,0.39521124958992004,-1.0744333849288523e-06,0.0,False,False,False,1
18155920.3046623,0.013069955632090569,4.764404296875,0.06934432685375214,8.607108611613512e-06,0.06093902513384819,-0.021381333470344543,0.016206875443458557,7.310257205972448e-05,0.0001976451021619141,-84.9773941040039,-41.30734634399414,-0.45457321405410767,1.0031839609146118,89.84281921386719,-0.0007324366015382111,0.42213642597198486,2.382636012043804e-06,0.0,False,False,False,1
18155920.3046623,0.013069955632090569,4.764404296875,0.06934432685375214,8.607108611613512e-06,0.06093902513384819,-0.021381333470344543,0.016206875443458557,7.310257205972448e-05,0.0001976451021619141,-84.9773941040039,-41.30734634399414,-0.45457321405410767,1.0031839609146118,89.84281921386719,-0.0007324366015382111,0.42213642597198486,2.382636012043804e-06,0.0,False,False,False,1
18155920.3908182,0.013097602874040604,4.769225120544434,0.06998194009065628,0.0003209142596460879,0.05595751851797104,0.007401070091873407,0.023009121417999268,-0.0002478096284903586,-0.00024279160425066948,-84.97653198242188,-41.00090789794922,-0.45009109377861023,1.0045909881591797,89.84281158447266,-0.000732383516151458,0.39899611473083496,-3.4587383197504096e-06,0.0,False,False,False,1
18155920.4633955,0.013107556849718094,4.773994445800781,0.0709572285413742,0.00013715546810999513,0.06571635603904724,0.01343846321105957,0.016752297058701515,-9.556559234624729e-05,-0.00012591879931278527,-84.97541809082031,-40.58976745605469,-0.4439350664615631,1.0063053369522095,89.84280395507812,-0.0007324373000301421,0.40050074458122253,-1.0746717862275545e-06,0.0,False,False,False,1
18155920.5494365,0.013117029331624508,4.777310848236084,0.07013769447803497,0.00011007871216861531,0.03853956237435341,-0.009523718617856503,0.009813141077756882,-2.694936665648129e-05,-0.00011180674482602626,-84.9744873046875,-40.24313735961914,-0.43884122371673584,1.007213830947876,89.84280395507812,-0.0007324374746531248,0.40059271454811096,-1.0747909300334868e-06,0.0,False,False,False,1
18155920.6307541,0.013126825913786888,4.780777454376221,0.07001012563705444,0.00012046982010360807,0.04262929782271385,-0.0015687303384765983,0.0036548497155308723,1.7485957869212143e-05,-0.00010923049558186904,-84.97337341308594,-39.83185958862305,-0.43281090259552,1.0077260732650757,89.84280395507812,-0.000732384214643389,0.4006846845149994,-1.0749101875262568e-06,0.0,False,False,False,1
18155920.6961143,0.013135166838765144,4.78379487991333,0.06874625384807587,0.00012763329141307622,0.04617281258106232,-0.01933983527123928,0.00020835420582443476,1.3933585250924807e-05,-0.00010954828758258373,-84.97230529785156,-39.442935943603516,-0.42728209495544434,1.0078353881835938,89.84281158447266,-0.0007323308964259923,0.4007766544818878,-1.075029331332189e-06,0.0,False,False,False,1
18155920.7729339,0.013141494244337082,4.786098957061768,0.06954479217529297,8.236600842792541e-05,0.02999296225607395,0.010394847020506859,-0.0012196659808978438,1.0100993677042425e-06,-0.00010940230276901275,-84.97144317626953,-39.13022232055664,-0.42275679111480713,1.0078353881835938,89.84281158447266,-0.0007323308964259923,0.40086865425109863,-1.075148588824959e-06,0.0,False,False,False,1
18155920.7729339,0.013141494244337082,4.786098957061768,0.06954479217529297,8.236600842792541e-05,0.02999296225607395,0.010394847020506859,-0.0012196659808978438,1.0100993677042425e-06,-0.00010940230276901275,-84.97144317626953,-39.13022232055664,-0.42275679111480713,1.0078353881835938,89.84281158447266,-0.0007323308964259923,0.40086865425109863,-1.075148588824959e-06,0.0,False,False,False,1
18155920.8565977,0.013148758560419083,4.788749694824219,0.0707450658082962,8.68286078912206e-05,0.031683627516031265,0.014346580021083355,-0.0019063475774601102,2.7664382287184708e-05,-0.00010958309576380998,-84.97042083740234,-38.762428283691406,-0.4173043370246887,1.007705569267273,89.84281921386719,-0.0007324375910684466,0.40096062421798706,-1.075267846317729e-06,0.0,False,False,False,1
18155920.9509201,0.01315652672201395,4.791610240936279,0.071221724152565,8.235248242272064e-05,0.03032545931637287,0.0050531900487840176,-0.001925526070408523,-1.9281720597064123e-05,-0.00011054877541027963,-84.96930694580078,-38.36165237426758,-0.4112878441810608,1.0075416564941406,89.84283447265625,-0.0007324909092858434,0.4010525941848755,-1.0753869901236612e-06,0.0,False,False,False,1
18155921.015311,0.013165006414055824,4.794790267944336,0.06954621523618698,0.00013168490841053426,0.04938405379652977,-0.02601972222328186,-0.0017803478986024857,2.745521669567097e-05,-0.0001091795857064426,-84.96807098388672,-37.90949249267578,-0.40477147698402405,1.0073435306549072,89.84281921386719,-0.0007324374746531248,0.4011445641517639,-1.0755062476164312e-06,0.0,False,False,False,1
18155921.1247221,0.013170499354600906,4.7969231605529785,0.06968255341053009,5.0208502216264606e-05,0.01949581317603588,0.001246205996721983,-0.001534812618046999,1.4320493392006028e-05,-0.00010998216748703271,-84.96721649169922,-37.600650787353516,-0.4003010392189026,1.0073435306549072,89.84281921386719,-0.0007324374746531248,0.40123653411865234,-1.0756253914223635e-06,0.0,False,False,False,1
18155921.2047694,0.013179821893572807,4.800212383270264,0.06999372690916061,0.00011646884377114475,0.041093092411756516,0.0038875695317983627,-0.0011771321296691895,1.5966788851073943e-05,-0.00011058606469305232,-84.96592712402344,-37.12076187133789,-0.39334768056869507,1.0072206258773804,89.84281921386719,-0.0007323840982280672,0.40132853388786316,-1.0757446489151334e-06,0.0,False,False,False,1
18155921.3287612,0.01318664662539959,4.802828311920166,0.07086734473705292,5.503735883394256e-05,0.021095892414450645,0.007045202422887087,-0.0008505504811182618,3.5040636703342898e-06,-0.00011043726408388466,-84.96485137939453,-36.736412048339844,-0.3876630961894989,1.0072206258773804,89.84281921386719,-0.0007323840982280672,0.4014205038547516,-1.0758637927210657e-06,0.0,False,False,False,1
18155921.4329207,0.013195737265050411,4.806089401245117,0.07031645625829697,8.727749082027003e-05,0.0313090942800045,-0.00528897438198328,-0.0006637076148763299,4.480928691918962e-05,-0.00010980244405800477,-84.9635009765625,-36.25592803955078,-0.3806550204753876,1.0072206258773804,89.84281921386719,-0.0007323840982280672,0.40151247382164,-1.0759830502138357e-06,0.0,False,False,False,1
18155921.546462,0.013204583898186684,4.809317111968994,0.07056623697280884,7.791774987708777e-05,0.028428437188267708,0.0021999727468937635,-0.0005091011407785118,4.45244149887003e-05,-0.00010961505176965147,-84.962158203125,-35.775123596191406,-0.37360578775405884,1.0072206258773804,89.84281921386719,-0.0007323840982280672,0.40160447359085083,-1.0761023077066056e-06,0.0,False,False,False,1
18155921.6120587,0.013191662728786469,4.804492473602295,0.07052619010210037,-0.00019701469864230603,-0.0735633596777916,-0.0006106120999902487,-0.0313802994787693,2.6933217668556608e-05,-0.00011127298057544976,-84.96080780029297,-35.29435729980469,-0.36653244495391846,1.0056906938552856,89.84281158447266,-0.0007324371254071593,0.36046302318573,-1.076221451512538e-06,0.0,False,False,False,1
18155921.6120587,0.013191662728786469,4.804492473602295,0.07052619010210037,-0.00019701469864230603,-0.0735633596777916,-0.0006106120999902487,-0.0313802994787693,2.6933217668556608e-05,-0.00011127298057544976,-84.96080780029297,-35.29435729980469,-0.36653244495391846,1.0056906938552856,89.84281158447266,-0.0007324371254071593,0.36046302318573,-1.076221451512538e-06,0.0,False,False,False,1
18155921.675432898,0.013175556436181068,4.798242568969727,0.0706549882888794,-0.0002540885761845857,-0.09859682619571686,0.0020318857859820127,-0.04061242565512657,9.69634493230842e-05,-0.00011011678725481033,-84.95994567871094,-34.97955322265625,-0.36186179518699646,1.003088355064392,89.84280395507812,-0.0007324365433305502,0.3935380280017853,-1.0763407090053079e-06,0.0,False,False,False,1
18155921.675432898,0.013175556436181068,4.798242568969727,0.0706549882888794,-0.0002540885761845857,-0.09859682619571686,0.0020318857859820127,-0.04061242565512657,9.69634493230842e-05,-0.00011011678725481033,-84.95994567871094,-34.97955322265625,-0.36186179518699646,1.003088355064392,89.84280395507812,-0.0007324365433305502,0.3935380280017853,-1.0763407090053079e-06,0.0,False,False,False,1
18155921.7436283,0.013146867044270039,4.791053771972656,0.07084406167268753,-0.00042064953595399857,-0.10540356487035751,0.0027722313534468412,-0.04660465940833092,0.0001983606198336929,0.00016979931388050318,-84.9591293334961,-34.675689697265625,-0.3573232591152191,1.0003631114959717,89.84281158447266,-0.0007324359030462801,0.35537177324295044,2.380728801654186e-06,0.0,False,False,False,1
18155921.7436283,0.013146867044270039,4.791053771972656,0.07084406167268753,-0.00042064953595399857,-0.10540356487035751,0.0027722313534468412,-0.04660465940833092,0.0001983606198336929,0.00016979931388050318,-84.9591293334961,-34.675689697265625,-0.3573232591152191,1.0003631114959717,89.84281158447266,-0.0007324359030462801,0.35537177324295044,2.380728801654186e-06,0.0,False,False,False,1
18155921.8207706,0.01312465313822031,4.781557083129883,0.07182635366916656,-0.00028798365383408964,-0.12311618030071259,0.012734547257423401,-0.04775608330965042,0.0001154224737547338,3.155430385959335e-05,-84.958251953125,-34.349361419677734,-0.3523229956626892,0.9970436692237854,89.84283447265625,-0.0007323818281292915,0.38052308559417725,-3.457069963630488e-09,0.0,False,False,False,1
18155921.8207706,0.01312465313822031,4.781557083129883,0.07182635366916656,-0.00028798365383408964,-0.12311618030071259,0.012734547257423401,-0.04775608330965042,0.0001154224737547338,3.155430385959335e-05,-84.958251953125,-34.349361419677734,-0.3523229956626892,0.9970436692237854,89.84283447265625,-0.0007323818281292915,0.38052308559417725,-3.457069963630488e-09,0.0,False,False,False,1
18155921.8827601,0.013100884854793549,4.772861480712891,0.06923065334558487,-0.0003833860100712627,-0.14026138186454773,-0.041869040578603745,-0.03369239717721939,1.9723664081539027e-05,3.876602477248525e-06,-84.95722198486328,-33.980979919433594,-0.34696024656295776,0.9939427375793457,89.84283447265625,-0.0007324345060624182,0.385042667388916,-3.457069963630488e-09,0.0,False,False,False,1
18155921.8827601,0.013100884854793549,4.772861480712891,0.06923065334558487,-0.0003833860100712627,-0.14026138186454773,-0.041869040578603745,-0.03369239717721939,1.9723664081539027e-05,3.876602477248525e-06,-84.95722198486328,-33.980979919433594,-0.34696024656295776,0.9939427375793457,89.84283447265625,-0.0007324345060624182,0.385042667388916,-3.457069963630488e-09,0.0,False,False,False,1
18155921.9471593,0.013085238635540009,4.767141342163086,0.06934667378664017,-0.00024296539777424186,-0.08882629871368408,0.001801646314561367,-0.020109698176383972,1.965844421647489e-05,5.56897077785834e-07,-84.95640563964844,-33.68532180786133,-0.3426492214202881,0.9923923015594482,89.84283447265625,-0.000732380838599056,0.3851304054260254,-3.457069963630488e-09,0.0,False,False,False,1
18155922.0065726,0.01307103130966425,4.761959075927734,0.06898955255746841,-0.00023912622418720275,-0.08722371608018875,-0.006010775920003653,-0.008680010214447975,3.1199258501146687e-06,-2.462404609104851e-07,-84.9555435180664,-33.3785514831543,-0.33821356296539307,0.9915726780891418,89.84282684326172,-0.0007323806057684124,0.3852181136608124,-3.457069963630488e-09,0.0,False,False,False,1
18155922.0664745,0.013058927841484547,4.757627010345459,0.0704086497426033,-0.0002020528045250103,-0.07231861352920532,0.023690115660429,-0.0011588371125981212,-4.7393412387464195e-05,-1.0072481018141843e-06,-84.95476531982422,-33.09579086303711,-0.3340112864971161,0.9913541078567505,89.84282684326172,-0.0007323805475607514,0.38530585169792175,-3.457069963630488e-09,0.0,False,False,False,1
18155922.2129917,0.01304802019149065,4.753600120544434,0.06982513517141342,-7.445037044817582e-05,-0.027485612779855728,-0.0039827898144721985,0.0035777962766587734,-3.8297024730127305e-05,-5.638976858790556e-07,-84.9539794921875,-32.81094741821289,-0.3298225402832031,0.9914633631706238,89.84282684326172,-0.0007323272293433547,0.38539355993270874,-3.457069963630488e-09,0.0,False,False,False,1
18155922.3095197,0.013031337410211563,4.747351169586182,0.06872133910655975,-0.0001728196511976421,-0.06473390012979507,-0.011434403248131275,0.007204967085272074,-4.311011070967652e-05,-8.318825166497845e-07,-84.95269012451172,-32.335941314697266,-0.32302603125572205,0.9920644164085388,89.84283447265625,-0.0007323807221837342,0.3854812979698181,-3.457069963630488e-09,0.0,False,False,False,1
18155922.383176,0.013016046024858952,4.741718769073486,0.06968789547681808,-0.0002076234668493271,-0.07647564262151718,0.013123715296387672,0.007824194617569447,-9.914435395330656e-06,-2.3310991537073278e-07,-84.95146179199219,-31.87797737121582,-0.3163003623485565,0.9928089380264282,89.84283447265625,-0.0007324342732317746,0.3855690360069275,-3.457069963630488e-09,0.0,False,False,False,1
18155922.383176,0.013016046024858952,4.741718769073486,0.06968789547681808,-0.0002076234668493271,-0.07647564262151718,0.013123715296387672,0.007824194617569447,-9.914435395330656e-06,-2.3310991537073278e-07,-84.95146179199219,-31.87797737121582,-0.3163003623485565,0.9928089380264282,89.84283447265625,-0.0007324342732317746,0.3855690360069275,-3.457069963630488e-09,0.0,False,False,False,1
18155922.4764082,-0.00165917060803622,4.7365922927856445,0.09025255590677261,-0.15739692747592926,-0.05498328432440758,0.22056330740451813,0.5586362481117249,-1.3946481943130493,-0.025727516040205956,-84.9500961303711,-31.528547286987305,-0.31002113223075867,1.0349990129470825,89.84272003173828,0.10565411299467087,0.3856567442417145,-3.457069963630488e-09,0.0,False,False,False,1
18155922.4764082,-0.00165917060803622,4.7365922927856445,0.09025255590677261,-0.15739692747592926,-0.05498328432440758,0.22056330740451813,0.5586362481117249,-1.3946481943130493,-0.025727516040205956,-84.9500961303711,-31.528547286987305,-0.31002113223075867,1.0349990129470825,89.84272003173828,0.10565411299467087,0.3856567442417145,-3.457069963630488e-09,0.0,False,False,False,1
18155922.5310978,0.018566399812698364,4.732699394226074,0.05288197472691536,0.3697815239429474,-0.07117336988449097,-0.683241605758667,-0.43162500858306885,0.9387834072113037,0.017885219305753708,-84.94950866699219,-31.08719825744629,-0.3037594258785248,1.0304979085922241,89.84286499023438,0.10047344118356705,0.38574448227882385,-3.457069963630488e-09,0.0,False,False,False,1
18155922.5310978,0.018566399812698364,4.732699394226074,0.05288197472691536,0.3697815239429474,-0.07117336988449097,-0.683241605758667,-0.43162500858306885,0.9387834072113037,0.017885219305753708,-84.94950866699219,-31.08719825744629,-0.3037594258785248,1.0304979085922241,89.84286499023438,0.10047344118356705,0.38574448227882385,-3.457069963630488e-09,0.0,False,False,False,1
18155922.6282477,0.01986686699092388,4.730167865753174,0.061371609568595886,0.013386480510234833,-0.02605852484703064,0.08738885074853897,-0.25209227204322815,0.5779297947883606,0.009187561459839344,-84.94879913330078,-30.828603744506836,-0.3003148138523102,1.0133267641067505,89.84281921386719,0.06301537156105042,0.38583219051361084,-3.457069963630488e-09,0.0,False,False,False,1
18155922.6282477,0.01986686699092388,4.730167865753174,0.061371609568595886,0.013386480510234833,-0.02605852484703064,0.08738885074853897,-0.25209227204322815,0.5779297947883606,0.009187561459839344,-84.94879913330078,-30.828603744506836,-0.3003148138523102,1.0133267641067505,89.84281921386719,0.06301537156105042,0.38583219051361084,-3.457069963630488e-09,0.0,False,False,False,1
18155922.7744221,0.03108595311641693,4.743374347686768,0.08081933110952377,0.07675106078386307,0.09034706652164459,0.13304410874843597,0.429680734872818,1.4472880363464355,0.023521799594163895,-84.94778442382812,-30.368200302124023,-0.2928451597690582,1.0539733171463013,89.8427505493164,-0.1078185886144638,0.49218764901161194,-3.457069963630488e-09,0.0,False,False,False,1
