timestamp,location_x,location_y,location_z,velocity_x,velocity_y,velocity_z,acceleration_x,acceleration_y,acceleration_z,angular_velocity_x,angular_velocity_y,angular_velocity_z,rotation_pitch,rotation_yaw,rotation_roll,control_throttle,control_steer,control_brake,control_hand_brake,control_reverse,control_manual_gear_shift,control_gear
16799433.8567769,-85.14678192138672,-103.28252410888672,-0.4418574571609497,1.5781132560732658e-06,5.8867928601102903e-05,0.0005768421688117087,1.6653575585223734e-05,0.0006083959597162902,0.026095863431692123,-0.0002212666004197672,-0.001149517484009266,-0.00031470414251089096,-1.311491847038269,89.84335327148438,-0.0004577425424940884,0.699999988079071,1.09446057194873e-06,0.0,False,False,False,0
16799433.8949782,-85.14678192138672,-103.28252410888672,-0.44187048077583313,1.0382872233094531e-06,4.13310517615173e-05,2.2511625502374955e-05,-1.4297035704657901e-05,-0.0004644558357540518,-0.014681180007755756,-0.0004201881238259375,-0.0016834140988066792,-0.0003177780890837312,-1.311491847038269,89.84335327148438,-0.0004577425424940884,0.699999988079071,1.1030435871361988e-06,0.0,False,False,False,0
16799434.0794377,-85.14678192138672,-103.28252410888672,-0.4418395161628723,9.61097498475283e-07,6.017878695274703e-05,0.000810345693025738,-1.6765324062362197e-06,0.0004093658644706011,0.017111465334892273,-0.0004354574775788933,-0.0013430914841592312,-0.00032393186120316386,-1.311491847038269,89.84335327148438,-0.0004577425424940884,0.699999988079071,1.111388314711803e-06,0.0,False,False,False,0
16799434.0838556,-85.14678192138672,-103.28252410888672,-0.44180071353912354,1.5292496300389757e-06,5.400523514254019e-05,0.0006725233397446573,4.0155018723453395e-06,-4.3632517190417275e-05,-0.0009740804671309888,-4.338987491792068e-05,-0.00047870154958218336,-0.00034767959732562304,-1.311491847038269,89.84335327148438,-0.0004577425424940884,0.699999988079071,1.1324880233587464e-06,0.0,False,False,False,0
16799434.1005357,-85.14678192138672,-103.28252410888672,-0.4417784512042999,1.2230360653120442e-06,6.579414184670895e-05,0.0011236283462494612,-1.5936671843519434e-05,0.000613545416854322,0.023477446287870407,-0.0002577322884462774,-0.0006555455038323998,-0.0003422197187319398,-1.311491847038269,89.84335327148438,-0.0004577425424940884,0.699999988079071,1.1327264246574487e-06,0.0,False,False,False,0
16799434.1089628,-85.14678192138672,-103.28252410888672,-0.44175827503204346,2.0052075342391618e-06,9.793281060410663e-05,0.0023715614806860685,9.191959543386474e-05,0.003776887198910117,0.14665518701076508,0.0002169627114199102,0.00011805018584709615,-0.0003502210893202573,-1.311491847038269,89.84335327148438,-0.0004577425424940884,0.699999988079071,1.1329648259561509e-06,0.0,False,False,False,0
16799434.1303213,-85.14678192138672,-103.28252410888672,-0.44168806076049805,1.309678737015929e-06,0.00011954128422075883,0.0030148790683597326,-3.3082142181228846e-05,0.0010277857072651386,0.03059876710176468,0.00022460269974544644,-0.00035997910890728235,-0.00030199202592484653,-1.311491847038269,89.84335327148438,-0.0004577425424940884,0.699999988079071,1.1359450127201853e-06,0.0,False,False,False,0
16799434.1539113,-85.14678192138672,-103.28252410888672,-0.4416477382183075,1.254592234545271e-06,8.175611583283171e-05,0.001529623637907207,-2.3399643396260217e-06,-0.0016050382982939482,-0.06309067457914352,9.186508395941928e-05,-0.0003953943960368633,-0.0003255210758652538,-1.311491847038269,89.84335327148438,-0.0004577425424940884,0.699999988079071,1.1397596608730964e-06,0.0,False,False,False,0
16799434.1945725,-85.14678192138672,-103.28252410888672,-0.4416090250015259,1.2610671547008678e-06,6.351545016514137e-05,0.0007576968637295067,1.614946967265496e-07,-0.0004549509030766785,-0.019253069534897804,-0.00012099635205231607,-0.00037912940024398267,-0.00032963065314106643,-1.311491847038269,89.84335327148438,-0.0004577425424940884,0.699999988079071,1.1420246437410242e-06,0.0,False,False,False,0
16799434.1945725,-85.14678192138672,-103.28252410888672,-0.4416090250015259,1.2610671547008678e-06,6.351545016514137e-05,0.0007576968637295067,1.614946967265496e-07,-0.0004549509030766785,-0.019253069534897804,-0.00012099635205231607,-0.00037912940024398267,-0.00032963065314106643,-1.311491847038269,89.84335327148438,-0.0004577425424940884,0.699999988079071,1.1420246437410242e-06,0.0,False,False,False,0
16799434.37218,-85.14678192138672,-103.28252410888672,-0.4415905773639679,1.307657726101752e-06,8.751153654884547e-05,0.0016180507373064756,6.472326731454814e-06,0.0024722949601709843,0.08974795788526535,8.998890552902594e-05,-0.0002472373016644269,-0.000306109432131052,-1.311491847038269,89.84335327148438,-0.0004577425424940884,0.699999988079071,1.1517996654220042e-06,0.0,False,False,False,0
16799434.3760801,-85.14678192138672,-103.28252410888672,-0.44168010354042053,1.0341958613935276e-06,0.00019327372137922794,0.005572225898504257,-8.168918429873884e-05,0.0430157408118248,1.5622854232788086,0.00039459639810957015,2.6553589123068377e-05,-0.00012526407954283059,-1.311491847038269,89.84335327148438,-0.0004577425424940884,0.699999988079071,1.1726609727702453e-06,0.0,False,False,False,0
16799434.377399,-85.14678192138672,-103.28252410888672,-0.4416593015193939,1.0341958613935276e-06,0.00019327372137922794,0.005572225898504257,-8.168918429873884e-05,0.0430157408118248,1.5622854232788086,0.00039459639810957015,2.6553589123068377e-05,-0.00012526407954283059,-1.311491847038269,89.84335327148438,-0.0004577425424940884,0.699999988079071,1.1726609727702453e-06,0.0,False,False,False,0
16799434.3889763,-85.14678192138672,-103.28252410888672,-0.4416159689426422,1.225688606609765e-06,0.00014320849732030183,0.003713277168571949,1.7160846255137585e-05,-0.004486653488129377,-0.1665918529033661,0.00018198342877440155,-8.317946048919111e-05,-0.00023580712149851024,-1.311491847038269,89.84335327148438,-0.0004577425424940884,0.699999988079071,1.1738529792637564e-06,0.0,False,False,False,0
16799434.4152339,-85.14678192138672,-103.28252410888672,-0.4416040778160095,1.354740788883646e-06,5.2621810027631e-05,0.0003986253868788481,4.9829986892291345e-06,-0.003497758414596319,-0.12798625230789185,6.152380956336856e-05,-0.00015378586249426007,-0.00034508705721236765,-1.311491847038269,89.84335327148438,-0.0004577425424940884,0.699999988079071,1.1790981488957186e-06,0.0,False,False,False,0
16799434.4400857,-85.14678192138672,-103.28252410888672,-0.44158831238746643,1.4301866713140043e-06,5.73831785004586e-05,0.0005457233637571335,3.0326589239848545e-06,0.00019139025243930519,0.0059128208085894585,4.9736063374439254e-05,-3.005240432685241e-05,-0.0003428224881645292,-1.311491847038269,89.84335327148438,-0.0004577425424940884,0.699999988079071,1.1836280009447364e-06,0.0,False,False,False,0
16799434.4739538,-85.14678192138672,-103.28252410888672,-0.44157981872558594,1.2537993825390004e-06,4.875645026913844e-05,0.0001915989414555952,-5.228955160418991e-06,-0.00025573710445314646,-0.0104979258030653,-1.3658918760484084e-05,-0.00016729187336750329,-0.00034194710315205157,-1.311491847038269,89.84335327148438,-0.0004577425424940884,0.699999988079071,1.1901844345629797e-06,0.0,False,False,False,0
16799434.5018716,-85.14678192138672,-103.28252410888672,-0.44160154461860657,1.2444885442164377e-06,2.5767236365936697e-05,-0.0006618227926082909,-3.3217165196219867e-07,-0.0008201586897484958,-0.030446507036685944,-3.463932080194354e-05,-5.777942351414822e-05,-0.0003544338105712086,-1.311491847038269,89.84335327148438,-0.0004577425424940884,0.699999988079071,1.195191089209402e-06,0.0,False,False,False,0
16799434.5358187,-85.14678192138672,-103.28252410888672,-0.44158846139907837,1.4673289570055204e-06,5.130842328071594e-05,0.0003061750903725624,6.595546437893063e-06,0.0007559583755210042,0.02865043468773365,6.236549552340875e-07,-2.245136329293018e-06,-0.0003459696308709681,-1.311491847038269,89.84335327148438,-0.0004577425424940884,0.699999988079071,1.2006746601400664e-06,0.0,False,False,False,0
16799434.6888623,-85.14678192138672,-103.28252410888672,-0.4415801763534546,1.2929888271173695e-06,4.884734516963363e-05,0.0001889374980237335,-5.186656380828936e-06,-7.321760494960472e-05,-0.003487843554466963,-5.2650484576588497e-05,-0.00013699171540793031,-0.000342166778864339,-1.311491847038269,89.84335327148438,-0.0004577425424940884,0.699999988079071,1.2069926924596075e-06,0.0,False,False,False,0
16799434.692819,-85.14678192138672,-103.28252410888672,-0.44166871905326843,1.4258524743127055e-06,3.2016188924899325e-05,-0.0002880157553590834,1.0905748695222428e-06,-0.0001381539332214743,-0.003914940170943737,1.8218561308458447e-05,0.00015574756253045052,-0.0003622167569119483,-1.311491847038269,89.84335327148438,-0.0004577425424940884,0.699999988079071,1.2297616649448173e-06,0.0,False,False,False,0
16799434.6942115,-85.14678192138672,-103.28252410888672,-0.4416477084159851,9.630183512854273e-07,0.00019097395124845207,0.0054883877746760845,-0.00012080021406291053,0.041488148272037506,1.5076476335525513,0.00038434716407209635,1.339104801445501e-05,-0.00013201833644416183,-1.311491847038269,89.84335327148438,-0.0004577425424940884,0.699999988079071,1.2297616649448173e-06,0.0,False,False,False,0
16799434.7039821,-85.14678192138672,-103.28252410888672,-0.4416361153125763,1.4029704971108004e-06,7.649138569831848e-05,0.0013772264355793595,5.224651613389142e-05,-0.01359537709504366,-0.4882209599018097,0.00015425370656885207,0.000102871039416641,-0.0003289027663413435,-1.311491847038269,89.84335327148438,-0.0004577425424940884,0.699999988079071,1.2298808087507496e-06,0.0,False,False,False,0
16799434.724575,-85.14678192138672,-103.28252410888672,-0.4415874481201172,1.4200296618582797e-06,9.642466466175392e-05,0.0020212242379784584,7.999983040463121e-07,0.0009347813902422786,0.03020060807466507,0.00012629387492779642,1.9151191736455075e-05,-0.000314133707433939,-1.311491847038269,89.84335327148438,-0.0004577425424940884,0.699999988079071,1.2328612228884595e-06,0.0,False,False,False,0
16799434.7558051,-85.14678192138672,-103.28252410888672,-0.4415566921234131,1.3316445119926357e-06,6.570368714164943e-05,0.0007952969172038138,-2.871241804314195e-06,-0.0009979883907362819,-0.0398249477148056,3.6900695704389364e-05,4.6889440454833675e-06,-0.00033107298077084124,-1.311491847038269,89.84335327148438,-0.0004577425424940884,0.699999988079071,1.238464392372407e-06,0.0,False,False,False,0
16799434.7794767,-85.14678192138672,-103.28252410888672,-0.4415501356124878,1.3384534440774587e-06,5.1028579036938027e-05,0.00021774684137199074,2.824088198849495e-07,-0.0006086681387387216,-0.023954598233103752,-1.5899448044365272e-05,-0.00011005694977939129,-0.00033617138979025185,-1.311491847038269,89.84335327148438,-0.0004577425424940884,0.699999988079071,1.2422793815858313e-06,0.0,False,False,False,0
16799434.8207641,-85.14678192138672,-103.28252410888672,-0.4415501356124878,1.2821390100725694e-06,4.433333742781542e-05,-4.877119863522239e-05,-1.3781648249278078e-06,-0.00016385047638323158,-0.006522409152239561,1.4086638657317962e-05,-4.86451608594507e-05,-0.0003402168513275683,-1.311491847038269,89.84335327148438,-0.0004577425424940884,0.699999988079071,1.2507437077147188e-06,0.0,False,False,False,0
16799434.9569998,-85.14678192138672,-103.28252410888672,-0.44155433773994446,1.3109971632729867e-06,4.122734026168473e-05,-0.00016548720304854214,1.1620749091889593e-06,-0.00012507388601079583,-0.004699979908764362,7.915748938103206e-06,-5.759026316809468e-05,-0.00034191497252322733,-1.311491847038269,89.84335327148438,-0.0004577425424940884,0.699999988079071,1.2553931583170197e-06,0.0,False,False,False,0
16799434.9609329,-85.14678192138672,-103.28252410888672,-0.441667765378952,1.1851411727548111e-06,2.9506980354199186e-05,-0.00039724985253997147,-1.1045192422898253e-06,-0.00010285853932145983,-0.002033962169662118,4.410190740600228e-05,5.644049906550208e-06,-0.0003587360552046448,-1.311491847038269,89.84335327148438,-0.0004577425424940884,0.699999988079071,1.27804435123835e-06,0.0,False,False,False,0
16799434.962265,-85.14678192138672,-103.28252410888672,-0.44164732098579407,1.1256121297265054e-06,0.0001895918685477227,0.00541899586096406,-1.5770119716762565e-05,0.04240884631872177,1.5408092737197876,0.00041245101601816714,0.00021731066226493567,-0.000132726549054496,-1.311491847038269,89.84335327148438,-0.0004577425424940884,0.699999988079071,1.27804435123835e-06,0.0,False,False,False,0
16799434.9692026,-85.14678192138672,-103.28252410888672,-0.44162750244140625,1.2581297141878167e-06,0.000118798459880054,0.0029105269350111485,1.9446981241344474e-05,-0.01038894709199667,-0.3681183159351349,0.00015361650730483234,6.006880721542984e-05,-0.00028729112818837166,-1.311491847038269,89.84335327148438,-0.0004577425424940884,0.699999988079071,1.27804435123835e-06,0.0,False,False,False,0
16799434.986778,-85.14678192138672,-103.28252410888672,-0.4416147470474243,1.3208180007495685e-06,5.94453485973645e-05,0.0006930103991180658,3.642931233116542e-06,-0.003449117997661233,-0.12886394560337067,0.00010144439875148237,-4.5889581087976694e-05,-0.00034675622009672225,-1.311491847038269,89.84335327148438,-0.0004577425424940884,0.699999988079071,1.2804287052858854e-06,0.0,False,False,False,0
16799435.0217788,-85.14678192138672,-103.28252410888672,-0.44159701466560364,1.2658832702072687e-06,5.3161529649514705e-05,0.00041214405791833997,-1.599921120032377e-06,-0.00018301016825716943,-0.008179961703717709,1.6451607734779827e-05,-5.496304220287129e-05,-0.00034674190101213753,-1.311491847038269,89.84335327148438,-0.0004577425424940884,0.699999988079071,1.2878200550403562e-06,0.0,False,False,False,0
16799435.057511,-85.14678192138672,-103.28252410888672,-0.4415997862815857,1.3544969306167332e-06,4.078522397321649e-05,-6.393259536707774e-05,2.4679347916389816e-06,-0.00034468629746697843,-0.013258973136544228,-3.364880831213668e-05,3.791738345171325e-05,-0.0003535634605214,-1.311491847038269,89.84335327148438,-0.0004577425424940884,0.699999988079071,1.2950922609888949e-06,0.0,False,False,False,0
16799435.0847272,-85.14678192138672,-103.28252410888672,-0.44160521030426025,1.326195729234314e-06,3.78309196094051e-05,-0.0001681781723164022,-1.0341661891288823e-06,-0.00010795448906719685,-0.0038092818576842546,3.0453204544755863e-06,-6.942125764908269e-05,-0.0003524739877320826,-1.311491847038269,89.84335327148438,-0.0004577425424940884,0.699999988079071,1.300337885368208e-06,0.0,False,False,False,0
16799435.1199003,-85.14678192138672,-103.28252410888672,-0.44159865379333496,1.4223174957805895e-06,4.6234577894210815e-05,0.00014775035378988832,2.7301116460876074e-06,0.0002386860578553751,0.008973203599452972,4.682706276071258e-05,2.481060437276028e-05,-0.00035139400279149413,-1.311491847038269,89.84335327148438,-0.0004577425424940884,0.699999988079071,1.3060601986580878e-06,0.0,False,False,False,0
16799435.2686538,-85.14678192138672,-103.28252410888672,-0.4415716826915741,1.440500113858434e-06,6.170704727992415e-05,0.0006732339388690889,5.698022391698032e-07,0.0004848723183386028,0.016467470675706863,-2.8928459869348444e-05,1.6382376998080872e-05,-0.0003378376131877303,-1.311491847038269,89.84335327148438,-0.0004577425424940884,0.699999988079071,1.3117826256348053e-06,0.0,False,False,False,0
16799435.2728866,-85.14674377441406,-103.26730346679688,-0.44210734963417053,0.0016084164381027222,0.5876915454864502,-0.01374506764113903,0.013473553583025932,4.9269328117370605,-0.12088903039693832,0.5402476191520691,-0.0014780941419303417,-0.00027547538047656417,-1.2950993776321411,89.84320831298828,-0.00045768622658215463,0.699999988079071,1.33514913613908e-06,0.0,False,False,False,0
16799435.2728866,-85.14674377441406,-103.26730346679688,-0.44210734963417053,0.0016084164381027222,0.5876915454864502,-0.01374506764113903,0.013473553583025932,4.9269328117370605,-0.12088903039693832,0.5402476191520691,-0.0014780941419303417,-0.00027547538047656417,-1.2950993776321411,89.84320831298828,-0.00045768622658215463,0.699999988079071,1.33514913613908e-06,0.0,False,False,False,0
16799435.2744335,-85.14673614501953,-103.2646484375,-0.4421588182449341,0.0017554856603965163,0.6416177749633789,-0.009346279315650463,0.03577544167637825,13.117868423461914,1.0700308084487915,0.5263971090316772,-0.0015450604259967804,-0.0002784363168757409,-1.2929342985153198,89.84318542480469,-0.00045773922465741634,0.699999988079071,1.33514913613908e-06,0.0,False,False,False,1
16799435.2992602,-85.14669036865234,-103.24390411376953,-0.4426901638507843,0.002551607321947813,0.9324204325675964,-0.021141275763511658,0.03177906572818756,11.606917381286621,-0.4422459006309509,0.5691782832145691,-0.001687186653725803,-0.000286943803075701,-1.2789528369903564,89.8431625366211,-0.00045773672172799706,0.699999988079071,2.622654733386298e-07,0.0,False,False,False,1
16799436.6393679,-85.13518524169922,-99.04660034179688,-0.5385239720344543,0.013032298535108566,4.761476516723633,-0.10973918437957764,0.002913501113653183,1.07339346408844,-0.07992718368768692,-0.04580463841557503,-7.901906792540103e-05,7.975257176440209e-05,-1.287866234779358,89.84296417236328,-0.00045773829333484173,0.43152952194213867,1.3700803265237482e-06,0.0,False,False,False,1
16799436.6393679,-85.13518524169922,-99.04660034179688,-0.5385239720344543,0.013032298535108566,4.761476516723633,-0.10973918437957764,0.002913501113653183,1.07339346408844,-0.07992718368768692,-0.04580463841557503,-7.901906792540103e-05,7.975257176440209e-05,-1.287866234779358,89.84296417236328,-0.00045773829333484173,0.43152952194213867,1.3700803265237482e-06,0.0,False,False,False,1
16799436.6393679,-85.13518524169922,-99.04660034179688,-0.5385239720344543,0.013032298535108566,4.761476516723633,-0.10973918437957764,0.002913501113653183,1.07339346408844,-0.07992718368768692,-0.04580463841557503,-7.901906792540103e-05,7.975257176440209e-05,-1.287866234779358,89.84296417236328,-0.00045773829333484173,0.43152952194213867,1.3700803265237482e-06,0.0,False,False,False,1
16799436.6393679,-85.13518524169922,-99.04660034179688,-0.5385239720344543,0.013032298535108566,4.761476516723633,-0.10973918437957764,0.002913501113653183,1.07339346408844,-0.07992718368768692,-0.04580463841557503,-7.901906792540103e-05,7.975257176440209e-05,-1.287866234779358,89.84296417236328,-0.00045773829333484173,0.43152952194213867,1.3700803265237482e-06,0.0,False,False,False,1
16799436.6393679,-85.13518524169922,-99.04660034179688,-0.5385239720344543,0.013032298535108566,4.761476516723633,-0.10973918437957764,0.002913501113653183,1.07339346408844,-0.07992718368768692,-0.04580463841557503,-7.901906792540103e-05,7.975257176440209e-05,-1.287866234779358,89.84296417236328,-0.00045773829333484173,0.43152952194213867,1.3700803265237482e-06,0.0,False,False,False,1
16799436.6393679,-85.13518524169922,-99.04660034179688,-0.5385239720344543,0.013032298535108566,4.761476516723633,-0.10973918437957764,0.002913501113653183,1.07339346408844,-0.07992718368768692,-0.04580463841557503,-7.901906792540103e-05,7.975257176440209e-05,-1.287866234779358,89.84296417236328,-0.00045773829333484173,0.43152952194213867,1.3700803265237482e-06,0.0,False,False,False,1
16799436.6393679,-85.13518524169922,-99.04660034179688,-0.5385239720344543,0.013032298535108566,4.761476516723633,-0.10973918437957764,0.002913501113653183,1.07339346408844,-0.07992718368768692,-0.04580463841557503,-7.901906792540103e-05,7.975257176440209e-05,-1.287866234779358,89.84296417236328,-0.00045773829333484173,0.43152952194213867,1.3700803265237482e-06,0.0,False,False,False,1
16799436.6393679,-85.13518524169922,-99.04660034179688,-0.5385239720344543,0.013032298535108566,4.761476516723633,-0.10973918437957764,0.002913501113653183,1.07339346408844,-0.07992718368768692,-0.04580463841557503,-7.901906792540103e-05,7.975257176440209e-05,-1.287866234779358,89.84296417236328,-0.00045773829333484173,0.43152952194213867,1.3700803265237482e-06,0.0,False,False,False,1
16799436.6393679,-85.13518524169922,-99.04660034179688,-0.5385239720344543,0.013032298535108566,4.761476516723633,-0.10973918437957764,0.002913501113653183,1.07339346408844,-0.07992718368768692,-0.04580463841557503,-7.901906792540103e-05,7.975257176440209e-05,-1.287866234779358,89.84296417236328,-0.00045773829333484173,0.43152952194213867,1.3700803265237482e-06,0.0,False,False,False,1
16799436.6393679,-85.13518524169922,-99.04660034179688,-0.5385239720344543,0.013032298535108566,4.761476516723633,-0.10973918437957764,0.002913501113653183,1.07339346408844,-0.07992718368768692,-0.04580463841557503,-7.901906792540103e-05,7.975257176440209e-05,-1.287866234779358,89.84296417236328,-0.00045773829333484173,0.43152952194213867,1.3700803265237482e-06,0.0,False,False,False,1
16799436.6393679,-85.13518524169922,-99.04660034179688,-0.5385239720344543,0.013032298535108566,4.761476516723633,-0.10973918437957764,0.002913501113653183,1.07339346408844,-0.07992718368768692,-0.04580463841557503,-7.901906792540103e-05,7.975257176440209e-05,-1.287866234779358,89.84296417236328,-0.00045773829333484173,0.43152952194213867,1.3700803265237482e-06,0.0,False,False,False,1
16799436.6393679,-85.13518524169922,-99.04660034179688,-0.5385239720344543,0.013032298535108566,4.761476516723633,-0.10973918437957764,0.002913501113653183,1.07339346408844,-0.07992718368768692,-0.04580463841557503,-7.901906792540103e-05,7.975257176440209e-05,-1.287866234779358,89.84296417236328,-0.00045773829333484173,0.43152952194213867,1.3700803265237482e-06,0.0,False,False,False,1
16799436.6393679,-85.13518524169922,-99.04660034179688,-0.5385239720344543,0.013032298535108566,4.761476516723633,-0.10973918437957764,0.002913501113653183,1.07339346408844,-0.07992718368768692,-0.04580463841557503,-7.901906792540103e-05,7.975257176440209e-05,-1.287866234779358,89.84296417236328,-0.00045773829333484173,0.43152952194213867,1.3700803265237482e-06,0.0,False,False,False,1
16799436.6393679,-85.13518524169922,-99.04660034179688,-0.5385239720344543,0.013032298535108566,4.761476516723633,-0.10973918437957764,0.002913501113653183,1.07339346408844,-0.07992718368768692,-0.04580463841557503,-7.901906792540103e-05,7.975257176440209e-05,-1.287866234779358,89.84296417236328,-0.00045773829333484173,0.43152952194213867,1.3700803265237482e-06,0.0,False,False,False,1
16799436.6393679,-85.13518524169922,-99.04660034179688,-0.5385239720344543,0.013032298535108566,4.761476516723633,-0.10973918437957764,0.002913501113653183,1.07339346408844,-0.07992718368768692,-0.04580463841557503,-7.901906792540103e-05,7.975257176440209e-05,-1.287866234779358,89.84296417236328,-0.00045773829333484173,0.43152952194213867,1.3700803265237482e-06,0.0,False,False,False,1
16799436.6393679,-85.13518524169922,-99.04660034179688,-0.5385239720344543,0.013032298535108566,4.761476516723633,-0.10973918437957764,0.002913501113653183,1.07339346408844,-0.07992718368768692,-0.04580463841557503,-7.901906792540103e-05,7.975257176440209e-05,-1.287866234779358,89.84296417236328,-0.00045773829333484173,0.43152952194213867,1.3700803265237482e-06,0.0,False,False,False,1
16799436.6393679,-85.13518524169922,-99.04660034179688,-0.5385239720344543,0.013032298535108566,4.761476516723633,-0.10973918437957764,0.002913501113653183,1.07339346408844,-0.07992718368768692,-0.04580463841557503,-7.901906792540103e-05,7.975257176440209e-05,-1.287866234779358,89.84296417236328,-0.00045773829333484173,0.43152952194213867,1.3700803265237482e-06,0.0,False,False,False,1
16799436.6393679,-85.13518524169922,-99.04660034179688,-0.5385239720344543,0.013032298535108566,4.761476516723633,-0.10973918437957764,0.002913501113653183,1.07339346408844,-0.07992718368768692,-0.04580463841557503,-7.901906792540103e-05,7.975257176440209e-05,-1.287866234779358,89.84296417236328,-0.00045773829333484173,0.43152952194213867,1.3700803265237482e-06,0.0,False,False,False,1
16799436.6393679,-85.13518524169922,-99.04660034179688,-0.5385239720344543,0.013032298535108566,4.761476516723633,-0.10973918437957764,0.002913501113653183,1.07339346408844,-0.07992718368768692,-0.04580463841557503,-7.901906792540103e-05,7.975257176440209e-05,-1.287866234779358,89.84296417236328,-0.00045773829333484173,0.43152952194213867,1.3700803265237482e-06,0.0,False,False,False,1
16799436.6393679,-85.13518524169922,-99.04660034179688,-0.5385239720344543,0.013032298535108566,4.761476516723633,-0.10973918437957764,0.002913501113653183,1.07339346408844,-0.07992718368768692,-0.04580463841557503,-7.901906792540103e-05,7.975257176440209e-05,-1.287866234779358,89.84296417236328,-0.00045773829333484173,0.43152952194213867,1.3700803265237482e-06,0.0,False,False,False,1
16799436.6393679,-85.13518524169922,-99.04660034179688,-0.5385239720344543,0.013032298535108566,4.761476516723633,-0.10973918437957764,0.002913501113653183,1.07339346408844,-0.07992718368768692,-0.04580463841557503,-7.901906792540103e-05,7.975257176440209e-05,-1.287866234779358,89.84296417236328,-0.00045773829333484173,0.43152952194213867,1.3700803265237482e-06,0.0,False,False,False,1
16799436.6393679,-85.13518524169922,-99.04660034179688,-0.5385239720344543,0.013032298535108566,4.761476516723633,-0.10973918437957764,0.002913501113653183,1.07339346408844,-0.07992718368768692,-0.04580463841557503,-7.901906792540103e-05,7.975257176440209e-05,-1.287866234779358,89.84296417236328,-0.00045773829333484173,0.43152952194213867,1.3700803265237482e-06,0.0,False,False,False,1
16799436.6393679,-85.13518524169922,-99.04660034179688,-0.5385239720344543,0.013032298535108566,4.761476516723633,-0.10973918437957764,0.002913501113653183,1.07339346408844,-0.07992718368768692,-0.04580463841557503,-7.901906792540103e-05,7.975257176440209e-05,-1.287866234779358,89.84296417236328,-0.00045773829333484173,0.43152952194213867,1.3700803265237482e-06,0.0,False,False,False,1
16799436.6393679,-85.13518524169922,-99.04660034179688,-0.5385239720344543,0.013032298535108566,4.761476516723633,-0.10973918437957764,0.002913501113653183,1.07339346408844,-0.07992718368768692,-0.04580463841557503,-7.901906792540103e-05,7.975257176440209e-05,-1.287866234779358,89.84296417236328,-0.00045773829333484173,0.43152952194213867,1.3700803265237482e-06,0.0,False,False,False,1
16799436.6393679,-85.13518524169922,-99.04660034179688,-0.5385239720344543,0.013032298535108566,4.761476516723633,-0.10973918437957764,0.002913501113653183,1.07339346408844,-0.07992718368768692,-0.04580463841557503,-7.901906792540103e-05,7.975257176440209e-05,-1.287866234779358,89.84296417236328,-0.00045773829333484173,0.43152952194213867,1.3700803265237482e-06,0.0,False,False,False,1
16799436.6393679,-85.13518524169922,-99.04660034179688,-0.5385239720344543,0.013032298535108566,4.761476516723633,-0.10973918437957764,0.002913501113653183,1.07339346408844,-0.07992718368768692,-0.04580463841557503,-7.901906792540103e-05,7.975257176440209e-05,-1.287866234779358,89.84296417236328,-0.00045773829333484173,0.43152952194213867,1.3700803265237482e-06,0.0,False,False,False,1
16799436.6393679,-85.13518524169922,-99.04660034179688,-0.5385239720344543,0.013032298535108566,4.761476516723633,-0.10973918437957764,0.002913501113653183,1.07339346408844,-0.07992718368768692,-0.04580463841557503,-7.901906792540103e-05,7.975257176440209e-05,-1.287866234779358,89.84296417236328,-0.00045773829333484173,0.43152952194213867,1.3700803265237482e-06,0.0,False,False,False,1
16799436.6393679,-85.13518524169922,-99.04660034179688,-0.5385239720344543,0.013032298535108566,4.761476516723633,-0.10973918437957764,0.002913501113653183,1.07339346408844,-0.07992718368768692,-0.04580463841557503,-7.901906792540103e-05,7.975257176440209e-05,-1.287866234779358,89.84296417236328,-0.00045773829333484173,0.43152952194213867,1.3700803265237482e-06,0.0,False,False,False,1
16799436.6393679,-85.13518524169922,-99.04660034179688,-0.5385239720344543,0.013032298535108566,4.761476516723633,-0.10973918437957764,0.002913501113653183,1.07339346408844,-0.07992718368768692,-0.04580463841557503,-7.901906792540103e-05,7.975257176440209e-05,-1.287866234779358,89.84296417236328,-0.00045773829333484173,0.43152952194213867,1.3700803265237482e-06,0.0,False,False,False,1
16799436.6393679,-85.13518524169922,-99.04660034179688,-0.5385239720344543,0.013032298535108566,4.761476516723633,-0.10973918437957764,0.002913501113653183,1.07339346408844,-0.07992718368768692,-0.04580463841557503,-7.901906792540103e-05,7.975257176440209e-05,-1.287866234779358,89.84296417236328,-0.00045773829333484173,0.43152952194213867,1.3700803265237482e-06,0.0,False,False,False,1
16799436.6393679,-85.13518524169922,-99.04660034179688,-0.5385239720344543,0.013032298535108566,4.761476516723633,-0.10973918437957764,0.002913501113653183,1.07339346408844,-0.07992718368768692,-0.04580463841557503,-7.901906792540103e-05,7.975257176440209e-05,-1.287866234779358,89.84296417236328,-0.00045773829333484173,0.43152952194213867,1.3700803265237482e-06,0.0,False,False,False,1
16799436.6393679,-85.13518524169922,-99.04660034179688,-0.5385239720344543,0.013032298535108566,4.761476516723633,-0.10973918437957764,0.002913501113653183,1.07339346408844,-0.07992718368768692,-0.04580463841557503,-7.901906792540103e-05,7.975257176440209e-05,-1.287866234779358,89.84296417236328,-0.00045773829333484173,0.43152952194213867,1.3700803265237482e-06,0.0,False,False,False,1
16799436.6393679,-85.13518524169922,-99.04660034179688,-0.5385239720344543,0.013032298535108566,4.761476516723633,-0.10973918437957764,0.002913501113653183,1.07339346408844,-0.07992718368768692,-0.04580463841557503,-7.901906792540103e-05,7.975257176440209e-05,-1.287866234779358,89.84296417236328,-0.00045773829333484173,0.43152952194213867,1.3700803265237482e-06,0.0,False,False,False,1
16799436.6393679,-85.13518524169922,-99.04660034179688,-0.5385239720344543,0.013032298535108566,4.761476516723633,-0.10973918437957764,0.002913501113653183,1.07339346408844,-0.07992718368768692,-0.04580463841557503,-7.901906792540103e-05,7.975257176440209e-05,-1.287866234779358,89.84296417236328,-0.00045773829333484173,0.43152952194213867,1.3700803265237482e-06,0.0,False,False,False,1
16799436.6393679,-85.13518524169922,-99.04660034179688,-0.5385239720344543,0.013032298535108566,4.761476516723633,-0.10973918437957764,0.002913501113653183,1.07339346408844,-0.07992718368768692,-0.04580463841557503,-7.901906792540103e-05,7.975257176440209e-05,-1.287866234779358,89.84296417236328,-0.00045773829333484173,0.43152952194213867,1.3700803265237482e-06,0.0,False,False,False,1
16799436.6393679,-85.13518524169922,-99.04660034179688,-0.5385239720344543,0.013032298535108566,4.761476516723633,-0.10973918437957764,0.002913501113653183,1.07339346408844,-0.07992718368768692,-0.04580463841557503,-7.901906792540103e-05,7.975257176440209e-05,-1.287866234779358,89.84296417236328,-0.00045773829333484173,0.43152952194213867,1.3700803265237482e-06,0.0,False,False,False,1
16799436.6393679,-85.13518524169922,-99.04660034179688,-0.5385239720344543,0.013032298535108566,4.761476516723633,-0.10973918437957764,0.002913501113653183,1.07339346408844,-0.07992718368768692,-0.04580463841557503,-7.901906792540103e-05,7.975257176440209e-05,-1.287866234779358,89.84296417236328,-0.00045773829333484173,0.43152952194213867,1.3700803265237482e-06,0.0,False,False,False,1
16799436.6393679,-85.13518524169922,-99.04660034179688,-0.5385239720344543,0.013032298535108566,4.761476516723633,-0.10973918437957764,0.002913501113653183,1.07339346408844,-0.07992718368768692,-0.04580463841557503,-7.901906792540103e-05,7.975257176440209e-05,-1.287866234779358,89.84296417236328,-0.00045773829333484173,0.43152952194213867,1.3700803265237482e-06,0.0,False,False,False,1
16799436.6393679,-85.13518524169922,-99.04660034179688,-0.5385239720344543,0.013032298535108566,4.761476516723633,-0.10973918437957764,0.002913501113653183,1.07339346408844,-0.07992718368768692,-0.04580463841557503,-7.901906792540103e-05,7.975257176440209e-05,-1.287866234779358,89.84296417236328,-0.00045773829333484173,0.43152952194213867,1.3700803265237482e-06,0.0,False,False,False,1
16799436.8043384,-85.13480377197266,-98.91116333007812,-0.541619062423706,0.013104069977998734,4.788023948669434,-0.10964448004961014,0.001409471849910915,0.5266881585121155,-0.011087479069828987,-0.04477783292531967,-0.0002539601700846106,0.00012051455269102007,-1.2938904762268066,89.84300231933594,-0.00045773937017656863,0.4170541763305664,1.3951157598057762e-06,0.0,False,False,False,1
16799436.8133907,-85.13337707519531,-98.39583587646484,-0.5533842444419861,0.013313591480255127,4.865864276885986,-0.10754546523094177,0.0018550700042396784,0.6249374747276306,0.5498290657997131,-0.0431647002696991,0.0004184586287010461,5.533236253540963e-05,-1.2941569089889526,89.84298706054688,-0.00045773942838422954,0.2815985679626465,-8.696820259501692e-07,0.0,False,False,False,1
16799436.818051,-85.13331604003906,-98.37310028076172,-0.5538802742958069,0.013321306556463242,4.868630409240723,-0.10647892951965332,0.0016517310868948698,0.5922050476074219,0.22833608090877533,-0.042534034699201584,0.0002628704532980919,5.0402279157424346e-05,-1.2943413257598877,89.84295654296875,-0.00045768608106300235,0.3757138252258301,3.224108695576433e-07,0.0,False,False,False,1
16799436.8401769,-85.13302612304688,-98.26761627197266,-0.5562393069267273,0.013352330774068832,4.880343437194824,-0.10966125875711441,0.0014342480571940541,0.5414927005767822,-0.1471189260482788,-0.04275288060307503,-0.00012558330490719527,6.599150219699368e-05,-1.295256495475769,89.84294891357422,-0.00045773963211104274,0.38034987449645996,8.608191706116486e-07,0.0,False,False,False,1
16799436.8401769,-85.13302612304688,-98.26761627197266,-0.5562393069267273,0.013405700214207172,4.900033473968506,-0.11197637021541595,0.001228682929649949,0.4533083438873291,-0.05329900234937668,-0.04158233851194382,0.00011762561916839331,2.546399446146097e-05,-1.2970869541168213,89.84294128417969,-0.0004576865758281201,0.3763107657432556,3.244369395360991e-07,0.0,False,False,False,1
16799436.9120684,-85.1320571899414,-97.91680145263672,-0.5642574429512024,0.013436407782137394,4.910439491271973,-0.11285536736249924,0.0010893960716202855,0.3691687285900116,-0.031183714047074318,-0.040130823850631714,0.00013769735232926905,2.30956884479383e-05,-1.2982481718063354,89.84293365478516,-0.00045774015597999096,0.36954373121261597,3.244369395360991e-07,0.0,False,False,False,1
16799437.0590412,-85.13155364990234,-97.73062896728516,-0.5685228109359741,0.013467160053551197,4.921855449676514,-0.11288075149059296,0.0008122778381220996,0.3015364110469818,-0.0006704858969897032,-0.03809022158384323,0.00018521962920203805,2.3406675609294325e-05,-1.2997097969055176,89.84294128417969,-0.00045774041791446507,0.3659698963165283,3.244369395360991e-07,0.0,False,False,False,1
16799437.0590412,-85.13155364990234,-97.73062896728516,-0.5685228109359741,0.013467160053551197,4.921855449676514,-0.11288075149059296,0.0008122778381220996,0.3015364110469818,-0.0006704858969897032,-0.03809022158384323,0.00018521962920203805,2.3406675609294325e-05,-1.2997097969055176,89.84294128417969,-0.00045774041791446507,0.3659698963165283,3.244369395360991e-07,0.0,False,False,False,1
16799437.0654278,-85.13011169433594,-97.21387481689453,-0.5803361535072327,0.013524805195629597,4.942925453186035,-0.10786362737417221,0.0004082606465090066,0.17415761947631836,1.1003872156143188,-0.028083577752113342,-0.00037056769360788167,4.382241240818985e-05,-1.3032137155532837,89.84294128417969,-0.0004577944637276232,0.3659698963165283,3.244369395360991e-07,0.0,False,False,False,1
16799437.0678212,-85.13008880615234,-97.2022476196289,-0.5805876851081848,0.013525768183171749,4.943289279937744,-0.10704503953456879,0.0004091730806976557,0.15458986163139343,0.34781768918037415,-0.02722223661839962,-1.8737735445029102e-05,3.597054455894977e-05,-1.3032137155532837,89.84294128417969,-0.0004577944637276232,0.3659698963165283,3.244369395360991e-07,0.0,False,False,False,1
16799437.0875733,-85.12982940673828,-97.1063003540039,-0.5827820301055908,0.01353229209780693,4.945809364318848,-0.11325567215681076,0.00033623396302573383,0.1298818290233612,-0.32008782029151917,-0.027507293969392776,-0.00014379200001712888,3.990497498307377e-05,-1.3037669658660889,89.84293365478516,-0.00045779452193528414,0.35475432872772217,3.244369395360991e-07,0.0,False,False,False,1
16799437.1297145,-85.1292953491211,-96.90286254882812,-0.5873755812644958,0.013545193709433079,4.950090408325195,-0.11222371459007263,0.000313801720039919,0.1041264459490776,0.025099968537688255,-0.024385083466768265,0.00018059926514979452,3.517658115015365e-05,-1.3048051595687866,89.84293365478516,-0.0004576879437081516,0.353843092918396,3.244369395360991e-07,0.0,False,False,False,1
16799437.154294,-85.12894439697266,-96.77845764160156,-0.5902023315429688,0.013550002127885818,4.951929092407227,-0.11273094266653061,0.00019135468755848706,0.07317183911800385,-0.020185530185699463,-0.022637292742729187,0.00022927411191631109,3.543793354765512e-05,-1.305385708808899,89.84294128417969,-0.0004577414656523615,0.3523837924003601,3.244369395360991e-07,0.0,False,False,False,1
16799437.1905444,-85.12847137451172,-96.6015625,-0.5942486524581909,0.01355450227856636,4.953732013702393,-0.11341527849435806,0.0001260041753994301,0.050481777638196945,-0.019161395728588104,-0.020548488944768906,0.00019576332124415785,3.7867739592911676e-05,-1.3061506748199463,89.8429183959961,-0.0004577415529638529,0.3517494797706604,3.244369395360991e-07,0.0,False,False,False,1
16799437.2229936,-85.12804412841797,-96.4400405883789,-0.5979184508323669,0.013557461090385914,4.9547224044799805,-0.11281099915504456,9.07471840037033e-05,0.03037542663514614,0.018533334136009216,-0.01833789236843586,0.000423947349190712,3.311856562504545e-05,-1.3067585229873657,89.8428955078125,-0.0004577416693791747,0.3511262536048889,3.244369395360991e-07,0.0,False,False,False,1
16799437.367812,-85.1276626586914,-96.29768371582031,-0.6012011170387268,0.013559172861278057,4.9551286697387695,-0.11418820917606354,5.957839675829746e-05,0.014140112325549126,-0.04793396219611168,-0.01679028570652008,0.00024252667208202183,3.838301563519053e-05,-1.3072503805160522,89.84288024902344,-0.0004576884093694389,0.35079145431518555,3.244369395360991e-07,0.0,False,False,False,1
16799437.372726,-85.12629699707031,-95.80219268798828,-0.6125827431678772,0.013556077145040035,4.9545440673828125,-0.11342164874076843,-2.59744356299052e-05,-0.004905073903501034,0.0064317830838263035,-0.011437555775046349,5.927290840190835e-05,4.4593783968593925e-05,-1.308623194694519,89.84283447265625,-0.00045774204772897065,0.35079145431518555,3.244369395360991e-07,0.0,False,False,False,1
16799437.372726,-85.12629699707031,-95.80219268798828,-0.6125827431678772,0.013556077145040035,4.9545440673828125,-0.11342164874076843,-2.59744356299052e-05,-0.004905073903501034,0.0064317830838263035,-0.011437555775046349,5.927290840190835e-05,4.4593783968593925e-05,-1.308623194694519,89.84283447265625,-0.00045774204772897065,0.35079145431518555,3.244369395360991e-07,0.0,False,False,False,1
16799437.3767651,-85.12620544433594,-95.76750946044922,-0.6133375763893127,0.01355642732232809,4.954545497894287,-0.10735324025154114,-3.698725049616769e-05,-0.01221772376447916,0.3368910253047943,-0.010425412096083164,-0.00013565692643169314,4.925282337353565e-05,-1.308623194694519,89.84283447265625,-0.00045774204772897065,0.3500410318374634,3.244369395360991e-07,0.0,False,False,False,1
16799437.3767651,-85.12620544433594,-95.76750946044922,-0.6133375763893127,0.01355642732232809,4.954545497894287,-0.10735324025154114,-3.698725049616769e-05,-0.01221772376447916,0.3368910253047943,-0.010425412096083164,-0.00013565692643169314,4.925282337353565e-05,-1.308623194694519,89.84283447265625,-0.00045774204772897065,0.3500410318374634,3.244369395360991e-07,0.0,False,False,False,1
16799437.4005979,-85.12588500976562,-95.65184020996094,-0.615940511226654,0.013554820790886879,4.9539618492126465,-0.11175914853811264,-6.881310400785878e-05,-0.024999620392918587,-0.1887197494506836,-0.010035949759185314,-0.00023861078079789877,5.204225089983083e-05,-1.3088417053222656,89.84281158447266,-0.0004577420768328011,0.35089361667633057,3.244369395360991e-07,0.0,False,False,False,1
16799437.4649635,-85.12503051757812,-95.33677673339844,-0.6230236291885376,0.01354919746518135,4.951872825622559,-0.10875096917152405,-9.449230128666386e-05,-0.03869454935193062,0.10419932007789612,0.14218679070472717,-0.00032824004301801324,4.463847653823905e-05,-1.3056042194366455,89.8427963256836,-0.0004577948711812496,0.3513757586479187,3.244369395360991e-07,0.0,False,False,False,1
16799437.4963348,-85.12459564208984,-95.18035125732422,-0.6264731884002686,0.013546970672905445,4.95056676864624,-0.10757787525653839,-7.05002312315628e-05,-0.041349757462739944,0.037140149623155594,0.19866809248924255,-0.0006352525088004768,-2.87709499389166e-05,-1.2998942136764526,89.84280395507812,-0.0004577938234433532,0.3517993092536926,-7.533345751653542e-07,0.0,False,False,False,1
16799437.4963348,-85.12459564208984,-95.18035125732422,-0.6264731884002686,0.013546970672905445,4.95056676864624,-0.10757787525653839,-7.05002312315628e-05,-0.041349757462739944,0.037140149623155594,0.19866809248924255,-0.0006352525088004768,-2.87709499389166e-05,-1.2998942136764526,89.84280395507812,-0.0004577938234433532,0.3517993092536926,-7.533345751653542e-07,0.0,False,False,False,1
16799437.5242276,-85.12421417236328,-95.04131317138672,-0.6295526027679443,0.013545454479753971,4.949384689331055,-0.10788188874721527,-5.3998181101633236e-05,-0.04209894686937332,-0.010827232152223587,0.22276462614536285,-0.0003352643398102373,-5.9963240346405655e-05,-1.293822169303894,89.84280395507812,-0.0004576859646476805,0.35225576162338257,-7.575071094834129e-07,0.0,False,False,False,1
16799437.6862229,-85.12238311767578,-94.37325286865234,-0.6441168189048767,0.013528112322092056,4.944180011749268,-0.10573235154151917,-9.873170347418636e-05,-0.03051147796213627,0.0037220607046037912,0.23786844313144684,-0.0005044979625381529,3.975367144448683e-05,-1.2618021965026855,89.8427963256836,-0.00045773363672196865,0.352658748626709,3.1525726740255777e-07,0.0,False,False,False,1
16799437.6878443,-85.122314453125,-94.3498306274414,-0.644599437713623,0.01352784875780344,4.944112300872803,-0.10052841901779175,-5.567946573137306e-05,-0.014304310083389282,1.099360466003418,0.23685048520565033,-0.0006046932539902627,4.24083809775766e-05,-1.260675311088562,89.8427963256836,-0.00045768008567392826,0.352658748626709,3.1525726740255777e-07,0.0,False,False,False,1
16799437.6952389,-85.1222152709961,-94.31389617919922,-0.6453579068183899,0.01352761685848236,4.943796634674072,-0.10293182730674744,-3.1909086828818545e-05,-0.04343531280755997,-0.33070626854896545,0.23686975240707397,-0.0009156034793704748,2.39682321989676e-05,-1.2589404582977295,89.8427963256836,-0.00045773311285302043,0.3545190691947937,-7.578647682748851e-07,0.0,False,False,False,1
16799437.7113048,-85.12200164794922,-94.23556518554688,-0.6470274925231934,0.013525809161365032,4.943215847015381,-0.1040804535150528,-0.00011411723971832544,-0.03666426241397858,-0.07251106947660446,0.2361130565404892,-0.0004622877750080079,2.605483132356312e-05,-1.2551838159561157,89.84280395507812,-0.0004576791252475232,0.3546103239059448,3.150188376821461e-07,0.0,False,False,False,1
16799437.7452331,-85.12152862548828,-94.07118225097656,-0.6505609750747681,0.013522795401513577,4.942119121551514,-0.10501435399055481,-9.063803008757532e-05,-0.032983727753162384,-0.028086809441447258,0.23393593728542328,-0.0006545282085426152,4.074070602655411e-05,-1.2473700046539307,89.84280395507812,-0.00045773113379254937,0.3548012971878052,3.150188376821461e-07,0.0,False,False,False,1
16799437.7688518,-85.12120819091797,-93.9527587890625,-0.653107225894928,0.013519871048629284,4.94141149520874,-0.10502142459154129,-0.0001220800040755421,-0.02954055927693844,-0.00029516921495087445,0.23255667090415955,-0.0010007183300331235,8.320978668052703e-05,-1.2417898178100586,89.8427963256836,-0.00045762339141219854,0.35517042875289917,8.531887374374492e-07,0.0,False,False,False,1
16799437.8037134,-85.12074279785156,-93.7823486328125,-0.6568040251731873,0.013517900370061398,4.940478324890137,-0.10584365576505661,-5.715673614758998e-05,-0.027065282687544823,-0.02384764887392521,0.23075737059116364,-0.0002827678981702775,8.673904812894762e-05,-1.2337915897369385,89.84280395507812,-0.00045772880548611283,0.35541290044784546,8.562874427298084e-07,0.0,False,False,False,1
16799437.8354585,-85.12030792236328,-93.62477111816406,-0.6602057218551636,0.013515952974557877,4.939733505249023,-0.10542496293783188,-6.107024091761559e-05,-0.023357512429356575,0.013130188919603825,0.22936227917671204,-0.0008453188929706812,6.48705754429102e-05,-1.22646963596344,89.8427734375,-0.0004576741484925151,0.35572677850723267,3.1984563975129277e-07,0.0,False,False,False,1
16799437.9898222,-85.11988067626953,-93.4664306640625,-0.6636348366737366,0.013512290082871914,4.939054012298584,-0.10571743547916412,-0.00011430284939706326,-0.021204005926847458,-0.00912678986787796,0.22822731733322144,-0.00046952799311839044,0.00012347745359875262,-1.2191476821899414,89.8427734375,-0.00045772624434903264,0.3559851050376892,1.3979747564007994e-06,0.0,False,False,False,1
16799437.9898222,-85.11988067626953,-93.4664306640625,-0.6636348366737366,0.013512290082871914,4.939054012298584,-0.10571743547916412,-0.00011430284939706326,-0.021204005926847458,-0.00912678986787796,0.22822731733322144,-0.00046952799311839044,0.00012347745359875262,-1.2191476821899414,89.8427734375,-0.00045772624434903264,0.3559851050376892,1.3979747564007994e-06,0.0,False,False,False,1
16799437.9962035,-85.11845397949219,-92.95000457763672,-0.6749438047409058,0.013503722846508026,4.937410354614258,-0.10102156549692154,-4.79029149573762e-05,0.009538003243505955,1.1767396926879883,0.22506576776504517,-0.0009048381471075118,0.00016407412476837635,-1.1954606771469116,89.84281921386719,-0.0004577222862280905,0.3559851050376892,1.4183608527673641e-06,0.0,False,False,False,1
16799438.0023948,-85.11837005615234,-92.9192886352539,-0.6755903959274292,0.013503169640898705,4.937285423278809,-0.10259438306093216,-8.893983613234013e-05,-0.020085429772734642,-0.25286465883255005,0.2250903993844986,-0.0005036254297010601,0.00014456376084126532,-1.1940604448318481,89.84282684326172,-0.0004577754298225045,0.3568129539489746,8.820381935947808e-07,0.0,False,False,False,1
16799438.0023948,-85.11837005615234,-92.9192886352539,-0.6755903959274292,0.013501536101102829,4.936903476715088,-0.10513783246278763,-6.613547884626314e-05,-0.01546348538249731,-0.102974072098732,0.22455553710460663,-0.0008025053539313376,0.0001249265915248543,-1.1885074377059937,89.84282684326172,-0.0004577744984999299,0.3568447232246399,8.834683740133187e-07,0.0,False,False,False,1
16799438.0275048,-85.1180419921875,-92.79730987548828,-0.6782172918319702,0.013501536101102829,4.936903476715088,-0.10513783246278763,-6.613547884626314e-05,-0.01546348538249731,-0.102974072098732,0.22455553710460663,-0.0008025053539313376,0.0001249265915248543,-1.181240200996399,89.84282684326172,-0.0004577733052428812,0.3569573163986206,-7.308641443160013e-07,0.0,False,False,False,1
16799438.0603212,-85.11761474609375,-92.63761138916016,-0.6816656589508057,0.013503530994057655,4.936522483825684,-0.10543285310268402,6.168175605125725e-05,-0.011780236847698689,-0.009121988900005817,0.22426089644432068,-0.00040961994091048837,-1.1522984095790889e-05,-1.181240200996399,89.84282684326172,-0.0004577733052428812,0.3569573163986206,-7.308641443160013e-07,0.0,False,False,False,1
16799438.1198469,-85.1167984008789,-92.34284210205078,-0.6879968643188477,0.013499479740858078,4.935741424560547,-0.10359831899404526,-8.484481804771349e-05,-0.015139839611947536,0.06800927221775055,0.0784311443567276,-0.0002544889284763485,8.070380135904998e-05,-1.171418309211731,89.84281921386719,-0.00045782505185343325,0.35717087984085083,8.80844822859217e-07,0.0,False,False,False,1
16799438.2672507,-85.11641693115234,-92.2080078125,-0.6908237338066101,0.01349810790270567,4.9353837966918945,-0.10279199481010437,-5.021755350753665e-05,-0.013091337867081165,0.029516329988837242,0.10407619178295135,-0.00030037539545446634,0.00010264205047860742,-1.170011281967163,89.84281921386719,-0.00045782484812662005,0.35736674070358276,8.912135172067792e-07,0.0,False,False,False,1
16799438.2728694,-85.11504364013672,-91.71453094482422,-0.7009872794151306,0.013493036851286888,4.934107780456543,-0.09813974797725677,-4.1201430576620623e-05,-0.01036741491407156,0.037798717617988586,0.10407619178295135,-0.00030037539545446634,0.00010264205047860742,-1.170011281967163,89.84281921386719,-0.00045782484812662005,0.35736674070358276,8.912135172067792e-07,0.0,False,False,False,1
16799438.2745501,-85.11497497558594,-91.68858337402344,-0.7014757990837097,0.013492690399289131,4.934011459350586,-0.09199593216180801,-6.591303827008232e-05,-0.018325241282582283,1.1688705682754517,0.1556069552898407,-0.0006962392944842577,0.00010775985720101744,-1.169184923171997,89.84284210205078,-0.0004578246735036373,0.35736674070358276,8.912135172067792e-07,0.0,False,False,False,1
16799438.2794886,-85.11491394042969,-91.66504669189453,-0.701915979385376,0.013493022881448269,4.93384313583374,-0.09111548960208893,6.968959496589378e-05,-0.035281285643577576,0.18454429507255554,0.1915711909532547,-0.00034597012563608587,7.002703205216676e-05,-1.1682764291763306,89.84283447265625,-0.0004577711515594274,0.36072635650634766,-8.372616093765828e-07,0.0,False,False,False,1
16799438.2984946,-85.11465454101562,-91.5726089477539,-0.7036998867988586,0.013492436148226261,4.933119297027588,-0.09292798489332199,-3.1325515010394156e-05,-0.03864554315805435,-0.09676859527826309,0.2920084595680237,-0.0009395013330504298,6.303457485046238e-05,-1.1632357835769653,89.84284210205078,-0.0004578237421810627,0.35810190439224243,3.548312861312297e-07,0.0,False,False,False,1
16799438.2984946,-85.11465454101562,-91.5726089477539,-0.7036998867988586,0.013492436148226261,4.933119297027588,-0.09292798489332199,-3.1325515010394156e-05,-0.03864554315805435,-0.09676859527826309,0.2920084595680237,-0.0009395013330504298,6.303457485046238e-05,-1.1488581895828247,89.84284973144531,-0.0004577680374495685,0.35833847522735596,8.949676839620224e-07,0.0,False,False,False,1
16799438.3622079,-85.11382293701172,-91.26081085205078,-0.7094722390174866,0.013487158343195915,4.931066989898682,-0.08631455898284912,-6.470742664532736e-05,-0.030810700729489326,0.1139632910490036,0.44471046328544617,-0.0011911343317478895,6.567798845935613e-05,-1.138148546218872,89.84283447265625,-0.00045776632032357156,0.3588055372238159,3.585854528864729e-07,0.0,False,False,False,1
16799438.3622079,-85.11382293701172,-91.26081085205078,-0.7094722390174866,0.013487158343195915,4.931066989898682,-0.08631455898284912,-6.470742664532736e-05,-0.030810700729489326,0.1139632910490036,0.44471046328544617,-0.0011911343317478895,6.567798845935613e-05,-1.138148546218872,89.84283447265625,-0.00045776632032357156,0.3588055372238159,3.585854528864729e-07,0.0,False,False,False,1
16799438.4322507,-85.11293029785156,-90.92635345458984,-0.7154800891876221,0.013483166694641113,4.92918062210083,-0.08528780937194824,-1.3109066458127927e-05,-0.025975700467824936,0.0221274234354496,0.4737377464771271,-0.001052504638209939,-2.2365642507793382e-05,-1.1065316200256348,89.84283447265625,-0.000457814778201282,0.3594393730163574,-7.160871291489457e-07,0.0,False,False,False,1
16799438.5839126,-85.11257934570312,-90.79352569580078,-0.7178749442100525,0.013479907996952534,4.9285383224487305,-0.08600739389657974,-0.00012099363084416837,-0.02384822815656662,-0.0267177727073431,0.47403421998023987,-0.0012392400531098247,5.586209590546787e-05,-1.0937727689743042,89.84284210205078,-0.00045781279914081097,0.35973596572875977,8.947279184212675e-07,0.0,False,False,False,1
16799438.5839126,-85.11257934570312,-90.79352569580078,-0.7178749442100525,0.013479907996952534,4.9285383224487305,-0.08600739389657974,-0.00012099363084416837,-0.02384822815656662,-0.0267177727073431,0.47403421998023987,-0.0012392400531098247,5.586209590546787e-05,-1.0937727689743042,89.84284210205078,-0.00045781279914081097,0.35973596572875977,8.947279184212675e-07,0.0,False,False,False,1
16799438.5884119,-85.1112060546875,-90.30044555664062,-0.7268213629722595,0.013472159393131733,4.926669597625732,-0.08638502657413483,-5.979470006423071e-05,-0.014420641586184502,-0.002914129290729761,0.464065819978714,-0.0012120404280722141,0.00010028703400166705,-1.0468698740005493,89.8428726196289,-0.0004578591324388981,0.35973596572875977,9.040239774549264e-07,0.0,False,False,False,1
16799438.5900999,-85.11112213134766,-90.26764678955078,-0.727377712726593,0.013471837155520916,4.926665306091309,-0.0803656056523323,-7.417463348247111e-05,-0.010598348453640938,0.33464837074279785,0.4618287682533264,-0.0011561439605429769,9.97037859633565e-05,-1.0437895059585571,89.8428955078125,-0.00045780534856021404,0.35973596572875977,9.040835493578925e-07,0.0,False,False,False,1
16799438.6237585,-85.11073303222656,-90.11884307861328,-0.7300140857696533,0.013470692560076714,4.926140785217285,-0.08497725427150726,-3.792059942497872e-05,-0.017377447336912155,-0.1527845412492752,0.46000269055366516,-0.001436605234630406,6.799408583901823e-05,-1.0298763513565063,89.84288787841797,-0.0004577499639708549,0.3606266379356384,3.676417748010863e-07,0.0,False,False,False,1
16799438.6563846,-85.11029815673828,-89.9576416015625,-0.7329188585281372,0.013470073230564594,4.9257121086120605,-0.08626260608434677,-1.8935976186185144e-05,-0.013106770813465118,-0.03929958492517471,0.4571027159690857,-0.0013866330264136195,5.465536014526151e-05,-1.0148909091949463,89.8429183959961,-0.00045780118671245873,0.3607798218727112,3.676417748010863e-07,0.0,False,False,False,1
16799438.6563846,-85.11029815673828,-89.9576416015625,-0.7329188585281372,0.013470073230564594,4.9257121086120605,-0.08626260608434677,-1.8935976186185144e-05,-0.013106770813465118,-0.03929958492517471,0.4571027159690857,-0.0013866330264136195,5.465536014526151e-05,-1.0148909091949463,89.8429183959961,-0.00045780118671245873,0.3609192967414856,3.676417748010863e-07,0.0,False,False,False,1
16799438.7176326,-85.1094741821289,-89.6553955078125,-0.7384366393089294,0.013468746095895767,4.925105094909668,-0.08771226555109024,6.370041319314623e-06,-0.009347809478640556,-0.03315310552716255,0.4526512920856476,-0.0015788410091772676,-3.078285953961313e-05,-0.987030565738678,89.84293365478516,-0.0004577439103741199,0.3610069155693054,-7.115603466445464e-07,0.0,False,False,False,1
16799438.8663269,-85.10900115966797,-89.4833755493164,-0.7415698766708374,0.013469116762280464,4.924866676330566,-0.08712836354970932,1.0619109161780216e-05,-0.006830381695181131,0.016728032380342484,0.45047619938850403,-0.001426680013537407,-5.47255331184715e-05,-0.9712801575660706,89.84293365478516,-0.00045774178579449654,0.3611184358596802,-7.154944796639029e-07,0.0,False,False,False,1
16799438.8706432,-85.10762786865234,-88.9905776977539,-0.7506468892097473,0.013470377773046494,4.924373149871826,-0.08767533302307129,1.0809966624947265e-05,-0.004230736754834652,-0.004688875284045935,0.44668108224868774,-0.00113231735303998,-7.052090222714469e-05,-0.9264536499977112,89.84294891357422,-0.00045778919593431056,0.3611184358596802,-7.3301930569869e-07,0.0,False,False,False,1
16799438.8724013,-85.1075668334961,-88.96907806396484,-0.7510173916816711,0.013470704667270184,4.924449443817139,-0.0822300910949707,7.491387805202976e-05,0.01748417317867279,1.2478783130645752,0.4462073743343353,-0.0010007756063714623,-7.254255615407601e-05,-0.9244933724403381,89.84294128417969,-0.00045778899220749736,0.3611184358596802,-7.3301930569869e-07,0.0,False,False,False,1
16799438.8797795,-85.10746765136719,-88.93356323242188,-0.7516478300094604,0.013469787314534187,4.92437744140625,-0.08482073247432709,-0.00012730933667626232,-0.009992426261305809,-0.35952675342559814,0.4460783898830414,-0.0015037170378491282,-3.863387246383354e-05,-0.9212626814842224,89.84295654296875,-0.0004577885556500405,0.36137574911117554,3.397450711872807e-07,0.0,False,False,False,1
16799438.8988354,-85.10721588134766,-88.84131622314453,-0.753335177898407,0.013468215242028236,4.924272060394287,-0.0874858945608139,-8.398226782446727e-05,-0.0056295981630682945,-0.1423766165971756,0.4457157552242279,-0.0015029138885438442,3.9001124605420046e-06,-0.9129025340080261,89.84295654296875,-0.0004578408261295408,0.36138540506362915,3.397450711872807e-07,0.0,False,False,False,1
16799438.9336802,-85.10674285888672,-88.67439270019531,-0.7563033699989319,0.013466255739331245,4.923948764801025,-0.08371124416589737,-5.783639062428847e-05,-0.009542345069348812,0.11141202598810196,0.2568546533584595,-0.0007894858135841787,3.195042518200353e-05,-0.9003896117210388,89.84296417236328,-0.0004578392836265266,0.36140549182891846,3.397450711872807e-07,0.0,False,False,False,1
16799438.9691746,-85.10627746582031,-88.49752807617188,-0.759272038936615,0.013464925810694695,4.923417091369629,-0.08061099797487259,-3.703123365994543e-05,-0.014804194681346416,0.08632488548755646,0.07423705607652664,-0.00020871781453024596,3.954023850383237e-05,-0.8956562876701355,89.84297180175781,-0.00045783870154991746,0.36153876781463623,3.397450711872807e-07,0.0,False,False,False,1
16799438.9946292,-85.10592651367188,-88.37068939208984,-0.7613129019737244,0.013463351875543594,4.923089981079102,-0.07860054075717926,-6.109593959990889e-05,-0.012697543948888779,0.07804055511951447,0.011013470590114594,-0.0002732840657699853,4.544416515273042e-05,-0.8948913216590881,89.84296417236328,-0.0004577851796057075,0.3617386817932129,3.397450711872807e-07,0.0,False,False,False,1
16799439.0326955,-85.10541534423828,-88.18597412109375,-0.7642537355422974,0.013462801463901997,4.922632694244385,-0.07790547609329224,-1.4668841686216183e-05,-0.012187003158032894,0.018523942679166794,-0.029869556427001953,7.985451520653442e-05,4.23882738687098e-05,-0.8955675363540649,89.84297180175781,-0.0004578119551297277,0.3618621230125427,3.397450711872807e-07,0.0,False,False,False,1
16799439.1831561,-85.10494995117188,-88.01476287841797,-0.7669128775596619,0.013463808223605156,4.9222540855407715,-0.07654620707035065,2.8942184144398198e-05,-0.010884189046919346,0.0390760712325573,-0.04168654605746269,4.367095698398771e-07,-3.649634527391754e-05,-0.8968788981437683,89.84297943115234,-0.00045783878886140883,0.36202263832092285,-7.379071575996932e-07,0.0,False,False,False,1
16799439.1880825,-85.10358428955078,-87.52251434326172,-0.7739354372024536,0.013455096632242203,4.918582439422607,-0.06389240175485611,-7.32719199731946e-05,-0.030881676822900772,0.10642930120229721,0.42281273007392883,-0.001260490040294826,-6.964488420635462e-05,-0.8670036792755127,89.84297943115234,-0.00045778180356137455,0.36202263832092285,-7.55312839828548e-07,0.0,False,False,False,1
16799439.1909563,-85.10350036621094,-87.4940185546875,-0.7742931246757507,0.01345461793243885,4.918430328369141,-0.05921090394258499,-8.268270175904036e-05,-0.026273153722286224,0.8086046576499939,0.42931339144706726,-0.001178862527012825,-7.135049963835627e-05,-0.8645311594009399,89.84297943115234,-0.0004578348307404667,0.36202263832092285,-7.55312839828548e-07,0.0,False,False,False,1
16799439.197551,-85.1034164428711,-87.46205139160156,-0.7746991515159607,0.013453736901283264,4.918186664581299,-0.0599050335586071,-0.0001356016582576558,-0.03750288859009743,-0.10683518648147583,0.43521931767463684,-0.0008812370360828936,-5.264696665108204e-05,-0.8616898059844971,89.84296417236328,-0.0004577811050694436,0.3635525703430176,3.1745159390084154e-07,0.0,False,False,False,1
16799439.212264,-85.10321807861328,-87.39070892333984,-0.7756173610687256,0.013452568091452122,4.917672157287598,-0.06071651354432106,-8.063094719545916e-05,-0.03549354895949364,-0.05598036199808121,0.44617772102355957,-0.0011139311827719212,-5.968799814581871e-05,-0.8552489280700684,89.84295654296875,-0.000457807065686211,0.3636331558227539,-7.572202775918413e-07,0.0,False,False,False,1
16799439.245083,-85.10279083251953,-87.2328872680664,-0.777677595615387,0.013450968079268932,4.916640281677246,-0.061513058841228485,-4.987973079551011e-05,-0.032168302685022354,-0.024831976741552353,0.4582579731941223,-0.0011088065803050995,-6.99116790201515e-05,-0.8406664729118347,89.84294891357422,-0.00045780534856021404,0.3638061285018921,-7.625850457770866e-07,0.0,False,False,False,1
16799439.2791796,-85.10232543945312,-87.06422424316406,-0.7799007296562195,0.013445314019918442,4.915672779083252,-0.06207416579127312,-0.00016491445421706885,-0.02821957878768444,-0.016366055235266685,0.4623188376426697,-0.0014296378940343857,5.0590741011546925e-05,-0.8248545527458191,89.84297180175781,-0.00045780351501889527,0.36415648460388184,8.48706804390531e-07,0.0,False,False,False,1
16799439.3088372,-85.10191345214844,-86.91805267333984,-0.7818692326545715,0.013442829251289368,4.914927959442139,-0.06329555064439774,-8.360650826944038e-05,-0.02506139501929283,-0.04109667241573334,0.46232977509498596,-0.0014332610880956054,4.449065454537049e-05,-0.811098575592041,89.84297943115234,-0.00045772187877446413,0.3644857406616211,3.123246301584004e-07,0.0,False,False,False,1
16799439.338143,-85.10153198242188,-86.77455139160156,-0.7837845683097839,0.013441079296171665,4.914303302764893,-0.06283342838287354,-5.9964266256429255e-05,-0.02140459418296814,0.01583516225218773,0.4604627192020416,-0.0013527005212381482,4.073248055647127e-05,-0.7976362705230713,89.84297943115234,-0.0004577737126965076,0.3647359013557434,3.123246301584004e-07,0.0,False,False,False,1
16799439.485501,-85.10105895996094,-86.60247802734375,-0.7860451340675354,0.013437971472740173,4.913656234741211,-0.06207602843642235,-8.881017129169777e-05,-0.018490826711058617,0.021643707528710365,0.4577432870864868,-0.0014187461929395795,8.15369639894925e-05,-0.7815784811973572,89.84297180175781,-0.00045782531378790736,0.364952027797699,8.513287639289047e-07,0.0,False,False,False,1
16799439.4901992,-85.09969329833984,-86.11088562011719,-0.7926697134971619,0.013433348387479782,4.912198543548584,-0.06349213421344757,-4.01157267333474e-05,-0.012648770585656166,-0.012287922203540802,0.4508206248283386,-0.0011005457490682602,9.315100032836199e-05,-0.7361987233161926,89.84298706054688,-0.0004577938234433532,0.364952027797699,8.591350706410594e-07,0.0,False,False,False,1
16799439.4922347,-85.09963989257812,-86.08815002441406,-0.7929516434669495,0.013433423824608326,4.912208557128906,-0.058263491839170456,1.631284612813033e-05,0.002165379235520959,1.1306638717651367,0.45009395480155945,-0.0012245411053299904,9.491755918134004e-05,-0.7341018319129944,89.84297943115234,-0.00045776693150401115,0.364952027797699,8.591350706410594e-07,0.0,False,False,False,1
16799439.4986696,-85.09954833984375,-86.0561294555664,-0.7933605313301086,0.013433302752673626,4.912106037139893,-0.06009870395064354,-1.858385257946793e-05,-0.015736235305666924,-0.281694620847702,0.44990062713623047,-0.0014068282907828689,8.565410098526627e-05,-0.7311648726463318,89.84297943115234,-0.00045779329957440495,0.3656895160675049,3.227528964089288e-07,0.0,False,False,False,1
16799439.5240932,-85.09922790527344,-85.93388366699219,-0.7949799299240112,0.013434750959277153,4.911802768707275,-0.06263259053230286,5.8228491980116814e-05,-0.012193608097732067,-0.1018807590007782,0.4490119218826294,-0.0010742712765932083,-1.1277049452473875e-05,-0.7199975252151489,89.84297943115234,-0.00045776553452014923,0.36571699380874634,-7.538264412687568e-07,0.0,False,False,False,1
16799439.5547563,-85.09883880615234,-85.78475189208984,-0.7969543933868408,0.013435385189950466,4.911520481109619,-0.06271831691265106,2.0901006791973487e-05,-0.009302759543061256,-0.0028251041658222675,0.44761550426483154,-0.0012611430138349533,-5.152217636350542e-05,-0.7063918113708496,89.84297180175781,-0.0004577908548526466,0.3658101558685303,-7.58833493819111e-07,0.0,False,False,False,1
16799439.5791617,-85.0985107421875,-85.66294860839844,-0.7985987067222595,0.013435269705951214,4.911314964294434,-0.0637521892786026,-4.6591303544119e-06,-0.008291448466479778,-0.04171093925833702,0.44664809107780457,-0.0013401091564446688,-6.330305041046813e-05,-0.6953063607215881,89.84295654296875,-0.0004577897780109197,0.36590659618377686,-7.601448714922299e-07,0.0,False,False,False,1
16799439.6085445,-85.09812927246094,-85.51921081542969,-0.8005889058113098,0.01343367900699377,4.91110897064209,-0.0652039498090744,-5.438379957922734e-05,-0.007042638026177883,-0.0496336854994297,0.44597020745277405,-0.0010893867583945394,1.2438022167771123e-06,-0.6822470426559448,89.84295654296875,-0.0004577351501211524,0.3659723401069641,3.1273870604309195e-07,0.0,False,False,False,1
16799439.6290775,-85.09786987304688,-85.417724609375,-0.8019278645515442,0.013434233143925667,4.91102933883667,-0.06242169812321663,2.6830301067093387e-05,-0.003855627030134201,0.13471156358718872,0.44507697224617004,-0.0011956349480897188,-3.808294786722399e-05,-0.6730672717094421,89.84297943115234,-0.0004578143125399947,0.366036593914032,-7.622908242410631e-07,0.0,False,False,False,1
16799439.7283574,-85.09761810302734,-85.32171630859375,-0.8032622337341309,0.013432856649160385,4.910897254943848,-0.06554996222257614,-7.046121027087793e-05,-0.006761224940419197,-0.1601323038339615,0.44476082921028137,-0.0013909059343859553,2.628348056532559e-06,-0.664372444152832,89.84300231933594,-0.0004578135267365724,0.36607617139816284,3.105928101376776e-07,0.0,False,False,False,1
16799439.732482,-85.09647369384766,-84.91825866699219,-0.8087074756622314,0.013430504128336906,4.910355567932129,-0.06112273037433624,-2.8651924367295578e-05,-0.006597338244318962,0.053920336067676544,0.24739331007003784,-0.0006637212354689837,3.550024484866299e-05,-0.630829393863678,89.84300994873047,-0.0004577570944093168,0.36607617139816284,3.105928101376776e-07,0.0,False,False,False,1
16799439.7340932,-85.0964126586914,-84.89816284179688,-0.8089417219161987,0.013430271297693253,4.910337924957275,-0.056008338928222656,-5.692546255886555e-05,-0.004313583951443434,1.2504328489303589,0.21245582401752472,-0.0006977375014685094,3.6994573747506365e-05,-0.6299756169319153,89.843017578125,-0.0004577837244141847,0.36607617139816284,3.105928101376776e-07,0.0,False,False,False,1
16799439.7448927,-85.09627532958984,-84.84762573242188,-0.8095303773880005,0.013429481536149979,4.910159587860107,-0.05606018379330635,-7.674739026697353e-05,-0.017330428585410118,-0.0050381761975586414,0.1529310643672943,-0.0005768217379227281,3.763453059946187e-05,-0.6282680630683899,89.84302520751953,-0.00045773020246997476,0.36633968353271484,3.105928101376776e-07,0.0,False,False,False,1
16799439.7592643,-85.09608459472656,-84.77651977539062,-0.8103659749031067,0.013428326696157455,4.909921646118164,-0.056822583079338074,-7.975634798640385e-05,-0.01643289439380169,-0.05265333876013756,0.09050263464450836,-0.00047663316945545375,3.868159910780378e-05,-0.6267381310462952,89.84302520751953,-0.0004577834624797106,0.36640065908432007,3.105928101376776e-07,0.0,False,False,False,1
16799439.7791874,-85.09580993652344,-84.6799087524414,-0.8115242719650269,0.013427301310002804,4.909623146057129,-0.05810747668147087,-5.211275492911227e-05,-0.015170539729297161,-0.06530158966779709,0.03320462629199028,-0.00027268679696135223,3.8616028177784756e-05,-0.625822901725769,89.84302520751953,-0.0004577566869556904,0.3664793372154236,3.105928101376776e-07,0.0,False,False,False,1
16799439.8008897,-85.09551239013672,-84.57408142089844,-0.812694787979126,0.013426708057522774,4.909378528594971,-0.05407097190618515,-2.7520178264239803e-05,-0.011347472667694092,0.18724799156188965,-0.00531691825017333,0.00015264214016497135,3.5416698665358126e-05,-0.6256657838821411,89.84300231933594,-0.00045772999874316156,0.3665764331817627,3.105928101376776e-07,0.0,False,False,False,1
16799439.8218794,-85.09522247314453,-84.47228240966797,-0.8138032555580139,0.013425192795693874,4.909124851226807,-0.05347754806280136,-7.306444604182616e-05,-0.012232075445353985,0.02861431986093521,-0.026421988382935524,-1.2252223314135335e-05,6.734905036864802e-05,-0.6260960698127747,89.84300231933594,-0.00045775671605952084,0.3666761517524719,8.477496749037527e-07,0.0,False,False,False,1
16799439.842242,-85.09495544433594,-84.37179565429688,-0.8148897290229797,0.013425172306597233,4.908883094787598,-0.05323902517557144,-1.001035570880049e-06,-0.011811492033302784,0.011653510853648186,-0.03722374141216278,8.397384954150766e-05,5.1254595746286213e-05,-0.6267995834350586,89.84300231933594,-0.0004577834624797106,0.36676543951034546,3.113674722499127e-07,0.0,False,False,False,1
16799439.8627716,-85.09469604492188,-84.2714614868164,-0.8159719109535217,0.013424832373857498,4.908651828765869,-0.053176574409008026,-1.6631087419227697e-05,-0.011314607225358486,0.003055381355807185,-0.04223553463816643,9.898470307234675e-05,4.440124030224979e-05,-0.6276260614395142,89.84300231933594,-0.00045775683247484267,0.3668491244316101,3.113674722499127e-07,0.0,False,False,False,1
16799439.8822504,-85.09442138671875,-84.17349243164062,-0.8170410990715027,0.013423115015029907,4.907892227172852,-0.051716335117816925,-8.605166658526286e-05,-0.038061343133449554,0.07316818088293076,0.14509834349155426,-0.0003114962310064584,3.9801696402719244e-05,-0.6255155205726624,89.84300231933594,-0.00045778334606438875,0.36692875623703003,3.113674722499127e-07,0.0,False,False,False,1
16799439.8822504,-85.09442138671875,-84.17349243164062,-0.8170410990715027,0.013423115015029907,4.907892227172852,-0.051716335117816925,-8.605166658526286e-05,-0.038061343133449554,0.07316818088293076,0.14509834349155426,-0.0003114962310064584,3.9801696402719244e-05,-0.6255155205726624,89.84300231933594,-0.00045778334606438875,0.36719441413879395,8.492989991282229e-07,0.0,False,False,False,1
16799439.9266244,-85.09383392333984,-83.9565200805664,-0.8190910816192627,0.013417908921837807,4.906267166137695,-0.04284163564443588,-8.851971506373957e-05,-0.037177130579948425,0.08911208808422089,0.3553099036216736,-0.0010476189199835062,5.159003922017291e-05,-0.6128796935081482,89.84300994873047,-0.00045775558101013303,0.3674852252006531,3.129168248960923e-07,0.0,False,False,False,1
16799440.0220931,-85.0936050415039,-83.86811065673828,-0.8199106454849243,0.01341744139790535,4.905612468719482,-0.04278523474931717,-2.595913247205317e-05,-0.03635188937187195,0.0031316436361521482,0.39520972967147827,-0.0011673247208818793,-9.342948033008724e-06,-0.6059197187423706,89.84300231933594,-0.00045775496982969344,0.36778098344802856,-7.627087370565278e-07,0.0,False,False,False,1
16799440.0220931,-85.0936050415039,-83.86811065673828,-0.8199106454849243,0.01341744139790535,4.905612468719482,-0.04278523474931717,-2.595913247205317e-05,-0.03635188937187195,0.0031316436361521482,0.39520972967147827,-0.0011673247208818793,-9.342948033008724e-06,-0.6059197187423706,89.84300231933594,-0.00045775496982969344,0.36778098344802856,-7.627087370565278e-07,0.0,False,False,False,1
16799440.0275898,-85.09246063232422,-83.45755004882812,-0.8235359787940979,0.013411983847618103,4.9029860496521,-0.03376292064785957,-7.066869147820398e-05,-0.016551509499549866,1.5585323572158813,0.45693930983543396,-0.0014316919259727001,-7.296697003766894e-05,-0.5690298676490784,89.84300231933594,-0.0004577786021400243,0.36778098344802856,-7.757033699817839e-07,0.0,False,False,False,1
16799440.03029,-85.09242248535156,-83.44471740722656,-0.8236308693885803,0.013411697000265121,4.902911186218262,-0.0335623100399971,-0.00010971395386150107,-0.02863391861319542,0.07672995328903198,0.45728108286857605,-0.00138325453735888,-7.366313366219401e-05,-0.5678414106369019,89.84300994873047,-0.0004577518266160041,0.36778098344802856,-7.757033699817839e-07,0.0,False,False,False,1
16799440.0471692,-85.09220886230469,-83.36360931396484,-0.8243016600608826,0.013409173116087914,4.902406215667725,-0.03789165988564491,-0.0001526712003396824,-0.030545959249138832,-0.261884868144989,0.46044304966926575,-0.001155979698523879,-2.682309968804475e-05,-0.5602394342422485,89.84300231933594,-0.000457751244539395,0.3689563274383545,2.9718023597524734e-07,0.0,False,False,False,1
16799440.0678324,-85.0919418334961,-83.26344299316406,-0.8251089453697205,0.013408602215349674,4.901876926422119,-0.03703836351633072,-2.7958058126387186e-05,-0.025920266285538673,0.041787490248680115,0.4609484076499939,-0.001017344300635159,-5.5377575336024165e-05,-0.5508410930633545,89.84300231933594,-0.0004578038933686912,0.3691186308860779,-7.782069246786705e-07,0.0,False,False,False,1
16799440.0898277,-85.0916519165039,-83.15631866455078,-0.8259955644607544,0.013407129794359207,4.90134334564209,-0.038024500012397766,-6.741268589394167e-05,-0.024429230019450188,-0.04514884576201439,0.4606182277202606,-0.0012916985433548689,-6.65065017528832e-05,-0.5407665371894836,89.84300231933594,-0.00045777641935274005,0.36930227279663086,-7.814257969585015e-07,0.0,False,False,False,1
16799440.1125681,-85.09135437011719,-83.04386901855469,-0.8269445896148682,0.013404217548668385,4.90083646774292,-0.038766272366046906,-0.00012699705257546157,-0.02210390381515026,-0.032347168773412704,0.45938435196876526,-0.0012961990432813764,-9.908505489875097e-06,-0.5302138924598694,89.84300231933594,-0.0004577756335493177,0.3694825768470764,2.913386083491787e-07,0.0,False,False,False,1
16799440.1125681,-85.09135437011719,-83.04386901855469,-0.8269445896148682,0.013404217548668385,4.90083646774292,-0.038766272366046906,-0.00012699705257546157,-0.02210390381515026,-0.032347168773412704,0.45938435196876526,-0.0012961990432813764,-9.908505489875097e-06,-0.5302138924598694,89.84300231933594,-0.0004577756335493177,0.3694825768470764,2.913386083491787e-07,0.0,False,False,False,1
16799440.1550403,-85.09078216552734,-82.83570098876953,-0.8287477493286133,0.013399701565504074,4.900033950805664,-0.03885165601968765,-9.152680286206305e-05,-0.017327891662716866,0.09048737585544586,0.4562819004058838,-0.0012066545896232128,9.969525126507506e-05,-0.5107751488685608,89.84300231933594,-0.00045774754835292697,0.3697863221168518,1.3695869256480364e-06,0.0,False,False,False,1
16799440.1766016,-85.09048461914062,-82.73054504394531,-0.8296346068382263,0.013400377705693245,4.899683952331543,-0.03882559761404991,3.1522718927590176e-05,-0.01631747931241989,0.001214883872307837,0.4546456038951874,-0.0012075754348188639,3.104502866335679e-06,-0.5010011792182922,89.843017578125,-0.0004577735671773553,0.36992937326431274,-7.792798442096682e-07,0.0,False,False,False,1
16799440.1993778,-85.09019470214844,-82.6192398071289,-0.8305926322937012,0.013400275260210037,4.899343967437744,-0.03960856795310974,-4.511804036155809e-06,-0.014973282814025879,-0.034482814371585846,0.4530393183231354,-0.0014417474158108234,-4.1471586882835254e-05,-0.4906875789165497,89.84300231933594,-0.00045774615136906505,0.3700493574142456,-7.827371746316203e-07,0.0,False,False,False,1
16799440.2216364,-85.08989715576172,-82.51005554199219,-0.8315356969833374,0.013397893868386745,4.899048805236816,-0.0397757962346077,-0.0001069408972398378,-0.013254815712571144,-0.007509701419621706,0.4515243470668793,-0.0012012962251901627,2.9579823603853583e-05,-0.4806199073791504,89.84300231933594,-0.0004577721410896629,0.37016379833221436,8.282572707685176e-07,0.0,False,False,False,1
16799440.2216364,-85.08989715576172,-82.51005554199219,-0.8315356969833374,0.013397893868386745,4.899048805236816,-0.0397757962346077,-0.0001069408972398378,-0.013254815712571144,-0.007509701419621706,0.4515243470668793,-0.0012012962251901627,2.9579823603853583e-05,-0.4806199073791504,89.84300231933594,-0.0004577721410896629,0.37016379833221436,8.282572707685176e-07,0.0,False,False,False,1
16799440.3238042,-85.08856201171875,-82.01528930664062,-0.8359861373901367,0.01339324563741684,4.898036956787109,-0.04125925526022911,-3.8374644645955414e-05,-0.009409163147211075,-0.010127617046236992,0.44642043113708496,-0.0012566909426823258,8.786428952589631e-05,-0.43533575534820557,89.84300231933594,-0.0004577825893647969,0.37026453018188477,8.359467642549134e-07,0.0,False,False,False,1
16799440.3253548,-85.08851623535156,-81.99787902832031,-0.8361228108406067,0.013393349014222622,4.8980536460876465,-0.035857491195201874,2.910382318077609e-05,0.004698563367128372,1.5207664966583252,0.4457937777042389,-0.0011660136515274644,8.730150875635445e-05,-0.43374431133270264,89.84302520751953,-0.00045778253115713596,0.37026453018188477,8.360063930012984e-07,0.0,False,False,False,1
16799440.3287103,-85.0884780883789,-81.9825210571289,-0.8362438082695007,0.013393753208220005,4.898028373718262,-0.03594711050391197,0.0001289871579501778,-0.008064966648817062,-0.028599485754966736,0.4456523060798645,-0.0011429493315517902,6.810693594161421e-05,-0.43233728408813477,89.84302520751953,-0.00045778241474181414,0.3707467317581177,-8.925283054850297e-07,0.0,False,False,False,1
16799440.345214,-85.08824920654297,-81.90304565429688,-0.8369349241256714,0.013393169268965721,4.897874355316162,-0.040055278688669205,-3.601095522753894e-05,-0.00949816219508648,-0.25334665179252625,0.44542980194091797,-0.0011529524344950914,7.721084693912417e-05,-0.42511093616485596,89.84302520751953,-0.0004577553190756589,0.3706245422363281,8.373177706744173e-07,0.0,False,False,False,1
16799440.3653966,-85.0879898071289,-81.80439758300781,-0.8377736210823059,0.013393232598900795,4.897746562957764,-0.03924950212240219,3.146328481307137e-06,-0.006348920986056328,0.040032219141721725,0.4447696805000305,-0.0011305368971079588,5.4127674957271665e-05,-0.41613608598709106,89.84302520751953,-0.0004577948129735887,0.37066638469696045,3.0093553959886776e-07,0.0,False,False,False,1
16799440.3867686,-85.08769226074219,-81.7000503540039,-0.838679850101471,0.013393165543675423,4.897615432739258,-0.04007990285754204,-3.1494339509663405e-06,-0.006158892996609211,-0.03900206461548805,0.4441259801387787,-0.0012336265062913299,4.328781142248772e-05,-0.4066762626171112,89.84300231933594,-0.00045775421313010156,0.3707124590873718,3.0093553959886776e-07,0.0,False,False,False,1
16799440.4101337,-85.08737182617188,-81.58600616455078,-0.8396924138069153,0.013394786044955254,4.897489070892334,-0.04092727601528168,6.964177737245336e-05,-0.0054304576478898525,-0.03641624376177788,0.44363167881965637,-0.001164860324934125,-2.7046720788348466e-05,-0.3963353633880615,89.84300231933594,-0.00045776698971167207,0.370755136013031,-7.755245405860478e-07,0.0,False,False,False,1
16799440.4276004,-85.0871353149414,-81.49905395507812,-0.8404860496520996,0.013394900597631931,4.897401809692383,-0.04203342646360397,6.455817128880881e-06,-0.004917758051306009,-0.06233904883265495,0.44323843717575073,-0.0013929246924817562,-5.072636849945411e-05,-0.3884601593017578,89.84300231933594,-0.00045775322359986603,0.3707960247993469,-7.781472959322855e-07,0.0,False,False,False,1
16799440.4487451,-85.08684539794922,-81.39686584472656,-0.8413763046264648,0.013394047506153584,4.897334575653076,-0.04021339863538742,-4.091408845852129e-05,-0.0032245302572846413,0.08728814870119095,0.44276154041290283,-0.0010624886490404606,-8.193445864890236e-06,-0.37921208143234253,89.84300231933594,-0.00045776605838909745,0.3708226680755615,2.946170809536852e-07,0.0,False,False,False,1
16799440.4691779,-85.08657836914062,-81.29618835449219,-0.8422591090202332,0.01339453924447298,4.8972625732421875,-0.04046082869172096,2.3934464479680173e-05,-0.0035045857075601816,-0.01204320602118969,0.44225218892097473,-0.0013121258234605193,-4.477392212720588e-05,-0.3701210916042328,89.84300231933594,-0.00045777892228215933,0.37085098028182983,-7.817238270035887e-07,0.0,False,False,False,1
16799440.4888337,-85.0863037109375,-81.19863891601562,-0.8431485295295715,0.013393442146480083,4.897017478942871,-0.04109343886375427,-5.510978007805534e-05,-0.012311656028032303,-0.031777478754520416,0.29131603240966797,-0.0006895636324770749,-6.078498245187802e-06,-0.36279231309890747,89.84300994873047,-0.0004577652143780142,0.3708750009536743,2.911597789534426e-07,0.0,False,False,False,1
16799440.5106843,-85.08601379394531,-81.09333038330078,-0.8439427614212036,0.013392075896263123,4.896673679351807,-0.03510598465800285,-6.354889046633616e-05,-0.015991274267435074,0.2784966230392456,0.14786550402641296,-0.0004318280261941254,1.4864476725051645e-05,-0.35870102047920227,89.84300231933594,-0.0004577783402055502,0.37095725536346436,2.911597789534426e-07,0.0,False,False,False,1
16799440.5106843,-85.08572387695312,-80.99063873291016,-0.844663143157959,0.013392569497227669,4.896354675292969,-0.03333744779229164,2.353787022002507e-05,-0.015212037600576878,0.08433450758457184,0.06378250569105148,-7.886420644354075e-05,-3.625877798185684e-05,-0.3568432033061981,89.84300994873047,-0.0004577782528940588,0.3710911273956299,-7.843465823498263e-07,0.0,False,False,False,1
16799440.5315212,-85.08572387695312,-80.99063873291016,-0.844663143157959,0.013392569497227669,4.896354675292969,-0.03333744779229164,2.353787022002507e-05,-0.015212037600576878,0.08433450758457184,0.06378250569105148,-7.886420644354075e-05,-3.625877798185684e-05,-0.3568432033061981,89.84300994873047,-0.0004577782528940588,0.3710911273956299,-7.843465823498263e-07,0.0,False,False,False,1
16799440.6340528,-85.08440399169922,-80.4958267211914,-0.8479086756706238,0.013387065380811691,4.895051956176758,-0.030912330374121666,-4.221573908580467e-05,-0.012624165043234825,0.014314891770482063,-0.042781438678503036,0.00011985074525000528,2.99278453894658e-05,-0.358578085899353,89.84300231933594,-0.0004577783402055502,0.3712047338485718,2.885370236072049e-07,0.0,False,False,False,1
16799440.6355135,-85.0843505859375,-80.47811126708984,-0.8479964137077332,0.013386732898652554,4.894927978515625,-0.02376009151339531,-9.185359522234648e-05,-0.03425084054470062,1.9759221076965332,0.08159587532281876,-0.00022860064927954227,3.0319766665343195e-05,-0.3582775592803955,89.84300231933594,-0.0004577783402055502,0.3717026114463806,2.885370236072049e-07,0.0,False,False,False,1
16799440.6355135,-85.0843505859375,-80.47811126708984,-0.8479964137077332,0.013386732898652554,4.894927978515625,-0.02376009151339531,-9.185359522234648e-05,-0.03425084054470062,1.9759221076965332,0.08159587532281876,-0.00022860064927954227,3.0319766665343195e-05,-0.3582775592803955,89.84300231933594,-0.0004577783402055502,0.3733478784561157,2.0171314645267557e-06,0.0,False,False,False,1
16799440.6558062,-85.08409118652344,-80.38104248046875,-0.8485015630722046,0.013384117744863033,4.894125938415527,-0.02403053641319275,-0.00011073273344663903,-0.04045404866337776,-0.04698391258716583,0.2156355381011963,-0.0006151642301119864,4.3983443902106956e-05,-0.3548009991645813,89.84300994873047,-0.0004577915242407471,0.37176650762557983,2.8865625267826545e-07,0.0,False,False,False,1
16799440.6558062,-85.08409118652344,-80.38104248046875,-0.8485015630722046,0.013384117744863033,4.894125938415527,-0.02403053641319275,-0.00011073273344663903,-0.04045404866337776,-0.04698391258716583,0.2156355381011963,-0.0006151642301119864,4.3983443902106956e-05,-0.3548009991645813,89.84300994873047,-0.0004577915242407471,0.371987521648407,2.8865625267826545e-07,0.0,False,False,False,1
16799440.6762198,-85.08381652832031,-80.28336334228516,-0.8490155339241028,0.013382519595324993,4.893337249755859,-0.023262834176421165,-8.009891462279484e-05,-0.03952890634536743,0.03847707062959671,0.30708643794059753,-0.000729170220438391,3.6588495277101174e-05,-0.34909096360206604,89.84302520751953,-0.0004577778745442629,0.371987521648407,2.8865625267826545e-07,0.0,False,False,False,1
16799440.7181771,-85.08325958251953,-80.07737731933594,-0.8498598337173462,0.01337890699505806,4.891781806945801,-0.017154989764094353,-0.0001405333896400407,-0.03658558055758476,0.027684226632118225,0.41078057885169983,-0.0012996323639526963,7.033319434412988e-06,-0.3332790732383728,89.84302520751953,-0.00045777714694850147,0.3725253939628601,2.851989506780228e-07,0.0,False,False,False,1
16799440.7387786,-85.08299255371094,-79.97633361816406,-0.8502485752105713,0.01337639894336462,4.891070365905762,-0.016122978180646896,-0.00012149295071139932,-0.03446303308010101,0.04999184608459473,0.4339888393878937,-0.0012254538014531136,1.8988388546858914e-05,-0.3244544565677643,89.84302520751953,-0.0004577634099405259,0.37280118465423584,2.851989506780228e-07,0.0,False,False,False,1
16799440.7593046,-85.08273315429688,-79.87757110595703,-0.8506197333335876,0.013374129310250282,4.890414714813232,-0.015690190717577934,-0.00011245773202972487,-0.03248676285147667,0.021444125100970268,0.44736921787261963,-0.001305504352785647,2.484583092154935e-05,-0.31552058458328247,89.84302520751953,-0.0004577763320412487,0.37304627895355225,2.851989506780228e-07,0.0,False,False,False,1
16799440.7805423,-85.08244323730469,-79.771728515625,-0.8510230183601379,0.01337177213281393,4.8897552490234375,-0.015896117314696312,-0.00010897519678110257,-0.03048790991306305,-0.009520238265395164,0.45524755120277405,-0.0013083977391943336,5.8292611356591806e-05,-0.305719256401062,89.84302520751953,-0.00045777589548379183,0.37327152490615845,8.231905894717784e-07,0.0,False,False,False,1
16799440.8008084,-85.0821762084961,-79.67323303222656,-0.8513880968093872,0.013371933251619339,4.889187812805176,-0.01545343641191721,8.003358743735589e-06,-0.028186626732349396,0.021989576518535614,0.45872288942337036,-0.0012710349401459098,-1.4511876543110702e-05,-0.2965121567249298,89.84300231933594,-0.0004577621875796467,0.37349748611450195,-7.893536917435995e-07,0.0,False,False,False,1
16799440.8213488,-85.0819091796875,-79.572998046875,-0.8517636656761169,0.013371704146265984,4.8886494636535645,-0.015651624649763107,-1.1182198250025976e-05,-0.02627580240368843,-0.009673192165791988,0.4601149260997772,-0.0010499798227101564,-5.09278142999392e-05,-0.2870728373527527,89.84300231933594,-0.00045778846833854914,0.3736923933029175,-7.924533065306605e-07,0.0,False,False,False,1
16799440.8213488,-85.0819091796875,-79.572998046875,-0.8517636656761169,0.013371704146265984,4.8886494636535645,-0.015651624649763107,-1.1182198250025976e-05,-0.02627580240368843,-0.009673192165791988,0.4601149260997772,-0.0010499798227101564,-5.09278142999392e-05,-0.2870728373527527,89.84300231933594,-0.00045778846833854914,0.37387675046920776,2.8043029942637077e-07,0.0,False,False,False,1
16799440.9241292,-85.08056640625,-79.07656860351562,-0.8537699580192566,0.013363559730350971,4.886488914489746,-0.01703566499054432,-7.28913873899728e-05,-0.02050493098795414,-0.014305120334029198,0.45476940274238586,-0.0012913747923448682,2.7239886549068615e-05,-0.24060022830963135,89.84300231933594,-0.00045776006300002337,0.37387675046920776,2.8043029942637077e-07,0.0,False,False,False,1
16799440.9256254,-85.08051300048828,-79.0588150024414,-0.8538253307342529,0.013363484293222427,4.886441230773926,-0.012594863772392273,-2.0779843907803297e-05,-0.013134913519024849,1.2232590913772583,0.45375725626945496,-0.0011629564687609673,2.705488986975979e-05,-0.23895415663719177,89.84300994873047,-0.0004577733634505421,0.37387675046920776,2.8043029942637077e-07,0.0,False,False,False,1
16799440.9292859,-85.0804672241211,-79.04163360595703,-0.8538796901702881,0.013363352976739407,4.886378765106201,-0.012792686000466347,-3.7370595237007365e-05,-0.017776742577552795,-0.05629707872867584,0.45345255732536316,-0.0011355755850672722,2.7208137908019125e-05,-0.23736955225467682,89.84300231933594,-0.00045775994658470154,0.37387675046920776,2.8043029942637077e-07,0.0,False,False,False,1
16799440.9292859,-85.08025360107422,-78.96332550048828,-0.8541865944862366,0.013362446799874306,4.88608980178833,-0.016522882506251335,-5.657841029460542e-05,-0.01804182678461075,-0.232900008559227,0.45298558473587036,-0.0012627274263650179,2.834095539583359e-05,-0.23010222613811493,89.84300231933594,-0.00045775974285788834,0.37465810775756836,2.8043029942637077e-07,0.0,False,False,False,1
16799440.9659055,-85.07998657226562,-78.86515808105469,-0.8545519113540649,0.013363187201321125,4.885777473449707,-0.015725189819931984,3.687791104312055e-05,-0.015556448139250278,0.0397314727306366,0.45144549012184143,-0.0013924234081059694,-2.8759537599398755e-05,-0.22101125121116638,89.84300231933594,-0.00045776611659675837,0.3747534155845642,-7.951953193696681e-07,0.0,False,False,False,1
16799440.9875757,-85.07969665527344,-78.7601089477539,-0.8549623489379883,0.013363081961870193,4.885469436645508,-0.016559025272727013,-4.897158760286402e-06,-0.014334027655422688,-0.038801271468400955,0.4500753879547119,-0.0011806839611381292,-5.839197910972871e-05,-0.21133969724178314,89.84300231933594,-0.00045777251943945885,0.37486129999160767,-7.973411584316636e-07,0.0,False,False,False,1
16799441.0087044,-85.07939910888672,-78.65676879882812,-0.8553707599639893,0.013361264020204544,4.885198593139648,-0.01678064838051796,-8.599695865996182e-05,-0.012812137603759766,-0.010483787395060062,0.4487312436103821,-0.001171368989162147,-1.1711515981005505e-05,-0.2018389105796814,89.84302520751953,-0.00045776553452014923,0.3749660849571228,2.7542319003259763e-07,0.0,False,False,False,1
16799441.0289708,-85.07913970947266,-78.55702209472656,-0.8557666540145874,0.013360215350985527,4.884963035583496,-0.01687733270227909,-5.139452332514338e-05,-0.011544506065547466,-0.004738429095596075,0.4476579427719116,-0.0013041860656812787,1.0010974619945046e-05,-0.192693293094635,89.84300994873047,-0.00045776533079333603,0.375058650970459,2.7542319003259763e-07,0.0,False,False,False,1
16799441.0505629,-85.07884216308594,-78.45195007324219,-0.8561965823173523,0.01335901953279972,4.884739398956299,-0.017424069344997406,-5.562747537624091e-05,-0.010403203777968884,-0.02543327957391739,0.44658955931663513,-0.0012432313524186611,2.000847780436743e-05,-0.18306955695152283,89.84302520751953,-0.0004577650688588619,0.37513941526412964,2.7542319003259763e-07,0.0,False,False,False,1
16799441.0505629,-85.07884216308594,-78.45195007324219,-0.8561965823173523,0.01335901953279972,4.884739398956299,-0.017424069344997406,-5.562747537624091e-05,-0.010403203777968884,-0.02543327957391739,0.44658955931663513,-0.0012432313524186611,2.000847780436743e-05,-0.18306955695152283,89.84302520751953,-0.0004577650688588619,0.37513941526412964,2.7542319003259763e-07,0.0,False,False,False,1
16799441.0930092,-85.07826232910156,-78.24459075927734,-0.8570516705513,0.013357402756810188,4.884367942810059,-0.017730576917529106,-4.732876914204098e-05,-0.00830695778131485,-0.013722045347094536,0.44480353593826294,-0.001184923923574388,2.5973016818170436e-05,-0.16417725384235382,89.84304809570312,-0.0004577646031975746,0.3752814531326294,2.7542319003259763e-07,0.0,False,False,False,1
16799441.1159284,-85.07796478271484,-78.13251495361328,-0.8575292229652405,0.013355808332562447,4.8841986656188965,-0.01818503625690937,-6.953229603823274e-05,-0.007382120471447706,-0.01981881633400917,0.44397541880607605,-0.0011775634484365582,2.685895378817804e-05,-0.15399344265460968,89.84306335449219,-0.0004577643994707614,0.3753422498703003,2.7542319003259763e-07,0.0,False,False,False,1
16799441.1380479,-85.07767486572266,-78.0244369506836,-0.8579832911491394,0.013356130570173264,4.88405704498291,-0.01794568821787834,1.457185408071382e-05,-0.006404203828424215,0.010823518969118595,0.4432264566421509,-0.0012365324655547738,-3.448553616181016e-05,-0.1441648006439209,89.84305572509766,-0.0004577708605211228,0.3753998279571533,-8.009176895029668e-07,0.0,False,False,False,1
16799441.1380479,-85.07767486572266,-78.0244369506836,-0.8579832911491394,0.013356130570173264,4.88405704498291,-0.01794568821787834,-8.09507127996767e-06,-0.005616829730570316,0.009952160529792309,0.44273391366004944,-0.0012413637014105916,-6.082325126044452e-05,-0.13482792675495148,89.84306335449219,-0.0004577706567943096,0.3754485249519348,-8.043749630815e-07,0.0,False,False,False,1
16799441.241504,-85.07632446289062,-77.5272216796875,-0.8601601123809814,0.013357321731746197,4.883586883544922,-0.018570445477962494,1.6874755601747893e-05,-0.004361304920166731,-0.010339654982089996,0.4410310983657837,-0.0012723723193630576,-8.412973693339154e-05,-0.099181167781353,89.84305572509766,-0.00045776672777719796,0.3754485249519348,-8.174887966561073e-07,0.0,False,False,False,1
16799441.2430719,-85.0762710571289,-77.50747680664062,-0.8602246046066284,0.013357128016650677,4.883504390716553,-0.013611146248877048,-4.7916066250763834e-05,-0.020404871553182602,1.2266989946365356,0.3983369469642639,-0.0011068054009228945,-8.452351903542876e-05,-0.09756924957036972,89.84305572509766,-0.00045776672777719796,0.3754485249519348,-8.174887966561073e-07,0.0,False,False,False,1
16799441.246227,-85.07622528076172,-77.49232482910156,-0.8602709174156189,0.013357005082070827,4.883440017700195,-0.012819478288292885,-3.964477946283296e-05,-0.020759448409080505,0.2553024888038635,0.36306753754615784,-0.0008850512094795704,-8.497140515828505e-05,-0.09643543511629105,89.84305572509766,-0.0004577700747177005,0.3754485249519348,-8.174887966561073e-07,0.0,False,False,False,1
16799441.2632174,-85.07601165771484,-77.41170501708984,-0.8605482578277588,0.013354792259633541,4.883107662200928,-0.014659949578344822,-0.00013408444647211581,-0.020138852298259735,-0.11152208596467972,0.23552276194095612,-0.0006322974804788828,-3.509104863042012e-05,-0.09200946986675262,89.84303283691406,-0.00045776666956953704,0.37566566467285156,2.5545443804730894e-07,0.0,False,False,False,1
16799441.2632174,-85.07601165771484,-77.41170501708984,-0.8605482578277588,0.013354792259633541,4.883107662200928,-0.014659949578344822,-0.00013408444647211581,-0.020138852298259735,-0.11152208596467972,0.23552276194095612,-0.0006322974804788828,-3.509104863042012e-05,-0.09200946986675262,89.84303283691406,-0.00045776666956953704,0.3757777810096741,2.5545443804730894e-07,0.0,False,False,False,1
16799441.305897,-85.07545471191406,-77.20552825927734,-0.8610448837280273,0.013351228088140488,4.882430076599121,-0.010023181326687336,-9.159518958767876e-05,-0.015250255353748798,0.05412109196186066,0.044638410210609436,-0.00015523565525654703,4.282283771317452e-05,-0.08743324875831604,89.84300231933594,-0.0004577665822580457,0.3759002685546875,7.932076186989434e-07,0.0,False,False,False,1
16799441.305897,-85.07545471191406,-77.20552825927734,-0.8610448837280273,0.013351228088140488,4.882430076599121,-0.010023181326687336,-5.9686040913220495e-05,-0.013864492066204548,0.01490858756005764,-0.0035535800270736217,0.00010640449181664735,6.570999539690092e-05,-0.08718735724687576,89.84300231933594,-0.0004577665822580457,0.37601423263549805,7.946382538648322e-07,0.0,False,False,False,1
16799441.3537292,-85.07481384277344,-76.97019958496094,-0.8614928126335144,0.013349387794733047,4.881785869598389,-0.008187517523765564,-1.512998278485611e-05,-0.012828945182263851,0.06291651725769043,-0.027026914060115814,0.00011437086504884064,4.267314216122031e-05,-0.08764497935771942,89.84300231933594,-0.0004577665822580457,0.3761330842971802,2.582560227892827e-07,0.0,False,False,False,1
16799441.3742684,-85.07454681396484,-76.87004852294922,-0.8616342544555664,0.013348870910704136,4.881536960601807,-0.007044787053018808,-2.5195420676027425e-05,-0.012133024632930756,0.055702194571495056,-0.037339936941862106,7.43825439712964e-05,3.351231862325221e-05,-0.08834849298000336,89.84300231933594,-0.00045776990009471774,0.3762363791465759,2.582560227892827e-07,0.0,False,False,False,1
16799441.3970818,-85.07425689697266,-76.75894165039062,-0.8618015646934509,0.013348308391869068,4.881269454956055,-0.007498543709516525,-2.4711223886697553e-05,-0.011751414276659489,-0.019933344796299934,-0.04253831505775452,2.1210445993347093e-05,2.8906390070915222e-05,-0.08929789066314697,89.84300231933594,-0.00045776990009471774,0.3763222098350525,2.582560227892827e-07,0.0,False,False,False,1
16799441.3970818,-85.07425689697266,-76.75894165039062,-0.8618015646934509,0.013348308391869068,4.881269454956055,-0.007498543709516525,-2.4711223886697553e-05,-0.011751414276659489,-0.019933344796299934,-0.04253831505775452,2.1210445993347093e-05,2.8906390070915222e-05,-0.08929789066314697,89.84300231933594,-0.00045776990009471774,0.3763222098350525,2.582560227892827e-07,0.0,False,False,False,1
16799441.4191916,-85.07395935058594,-76.6505355834961,-0.8618913888931274,0.013345910236239433,4.880383491516113,-0.001879910472780466,-0.00010799389565363526,-0.03989676013588905,0.25301864743232727,0.18681368231773376,-0.0005387956625781953,2.7153471819474362e-05,-0.08636090904474258,89.84300231933594,-0.00045776990009471774,0.3764137625694275,2.582560227892827e-07,0.0,False,False,False,1
16799441.4402635,-85.07369995117188,-76.54915618896484,-0.8619104623794556,0.013342317193746567,4.878774166107178,0.003584391437470913,-0.00013925433449912816,-0.03829878568649292,0.10072054713964462,0.36171579360961914,-0.0009901588782668114,-2.732631173785194e-06,-0.07384800165891647,89.84300231933594,-0.00045775974285788834,0.37700051069259644,2.547987492107495e-07,0.0,False,False,False,1
16799441.5407449,-85.07343292236328,-76.44857025146484,-0.8618909120559692,0.013342317193746567,4.878774166107178,0.003584391437470913,-0.00013925433449912816,-0.03829878568649292,0.10072054713964462,0.36171579360961914,-0.0009901588782668114,-2.732631173785194e-06,-0.07384800165891647,89.84300231933594,-0.00045775974285788834,0.37700051069259644,2.547987492107495e-07,0.0,False,False,False,1
16799441.5447521,-85.07229614257812,-76.04637908935547,-0.8617227077484131,0.013333448208868504,4.875927448272705,0.006303295958787203,-0.00010761815792648122,-0.03454268351197243,0.032991766929626465,0.45190107822418213,-0.0011879149824380875,2.3362577849184163e-05,-0.03875449299812317,89.84300231933594,-0.00045776282786391675,0.37700051069259644,2.547987492107495e-07,0.0,False,False,False,1
16799441.5477238,-85.07222747802734,-76.02049255371094,-0.8616833090782166,0.013333042152225971,4.875760555267334,0.010071134194731712,-7.651630585314706e-05,-0.03144890442490578,0.710002064704895,0.4527556598186493,-0.0012038589920848608,2.3408070774166845e-05,-0.03635026514530182,89.84300231933594,-0.00045776282786391675,0.37824583053588867,2.547987492107495e-07,0.0,False,False,False,1
16799441.550392,-85.07218933105469,-76.00714874267578,-0.8616598844528198,0.013332882896065712,4.875678062438965,0.011219428852200508,-5.8250207075616345e-05,-0.0301729254424572,0.42000511288642883,0.4568864405155182,-0.001174021977931261,2.3701015379629098e-05,-0.027949132025241852,89.84300231933594,-0.0004577636136673391,0.3783283829689026,2.547987492107495e-07,0.0,False,False,False,1
16799441.5869233,-85.07170867919922,-75.83182525634766,-0.8614668846130371,0.013329659588634968,4.874683856964111,0.008281749673187733,-0.00010405274224467576,-0.026872815564274788,0.03501710295677185,0.45830896496772766,-0.0012827068567276,5.311184941092506e-05,-0.018680566921830177,89.84300231933594,-0.0004577636136673391,0.378484845161438,7.928499599074712e-07,0.0,False,False,False,1
16799441.5869233,-85.07170867919922,-75.83182525634766,-0.8614668846130371,0.013329659588634968,4.874683856964111,0.008281749673187733,-0.00010405274224467576,-0.026872815564274788,0.03501710295677185,0.45830896496772766,-0.0012827068567276,5.311184941092506e-05,-0.018680566921830177,89.84300231933594,-0.0004577636136673391,0.378484845161438,7.928499599074712e-07,0.0,False,False,False,1
16799441.6307117,-85.07112121582031,-75.61992645263672,-0.8612581491470337,0.01332640741020441,4.873654842376709,0.007394043263047934,-0.00017014863260556012,-0.02258731797337532,-0.0003127358213532716,0.4576473534107208,-0.0013643844285979867,6.091165778343566e-05,0.0012430943315848708,89.84300231933594,-0.000457763671875,0.3788599967956543,1.3284573014971102e-06,0.0,False,False,False,1
16799441.6510691,-85.07085418701172,-75.51948547363281,-0.8611618876457214,0.013324866071343422,4.873227596282959,0.007232450880110264,-7.483716763090342e-05,-0.02074423059821129,-0.007845851592719555,0.45639941096305847,-0.0011952451895922422,6.926791684236377e-05,0.010655094869434834,89.84300231933594,-0.0004577643994707614,0.3790245056152344,7.929692174002412e-07,0.0,False,False,False,1
16799441.6729021,-85.07056427001953,-75.41410064697266,-0.8610742688179016,0.013323321007192135,4.8728179931640625,0.006642306223511696,-7.14916895958595e-05,-0.018952751532197,-0.02730659209191799,0.45486554503440857,-0.0013365712948143482,7.444534276146442e-05,0.0204973965883255,89.84300231933594,-0.00045776276965625584,0.37917113304138184,7.943997388792923e-07,0.0,False,False,False,1
16799441.6729021,-85.07056427001953,-75.41410064697266,-0.8610742688179016,0.013323321007192135,4.8728179931640625,0.006642306223511696,-7.14916895958595e-05,-0.018952751532197,-0.02730659209191799,0.45486554503440857,-0.0013365712948143482,7.444534276146442e-05,0.0204973965883255,89.84300231933594,-0.00045776276965625584,0.37917113304138184,7.943997388792923e-07,0.0,False,False,False,1
16799441.7191787,-85.0699462890625,-75.18765258789062,-0.8609187602996826,0.013324955478310585,4.872060298919678,0.006107384338974953,1.6789781511761248e-05,-0.01544396486133337,0.011578693985939026,0.45132845640182495,-0.0012068916112184525,-5.852575122844428e-05,0.04152754694223404,89.84300231933594,-0.0004577644867822528,0.3794519901275635,-8.208268127418705e-07,0.0,False,False,False,1
16799441.8262463,-85.06965637207031,-75.07845306396484,-0.8608421683311462,0.01332219410687685,4.871747970581055,0.005987268406897783,-0.00012327058357186615,-0.013942671939730644,-0.005362103693187237,0.44977787137031555,-0.0011082359123975039,1.806548607419245e-05,0.05161573737859726,89.84300231933594,-0.0004577629442792386,0.3795718550682068,7.901079470684635e-07,0.0,False,False,False,1
16799441.8302869,-85.0685043334961,-74.65413665771484,-0.8606944680213928,0.013318105600774288,4.870772361755371,0.004872346296906471,-4.696754695032723e-05,-0.011207505129277706,-0.012807894498109818,0.4449513554573059,-0.0012295445194467902,7.692250801483169e-05,0.09053415060043335,89.84300231933594,-0.0004577666404657066,0.3795718550682068,7.962476047396194e-07,0.0,False,False,False,1
16799441.8302869,-85.0685043334961,-74.65413665771484,-0.8606944680213928,0.013318105600774288,4.870772361755371,0.004872346296906471,-4.696754695032723e-05,-0.011207505129277706,-0.012807894498109818,0.4449513554573059,-0.0012295445194467902,7.692250801483169e-05,0.09053415060043335,89.84300231933594,-0.0004577666404657066,0.3795718550682068,7.962476047396194e-07,0.0,False,False,False,1
16799441.831882,-85.0684585571289,-74.63483428955078,-0.8606647849082947,0.013319676741957664,4.870732307434082,0.010106748901307583,0.00039691352867521346,-0.010118824429810047,1.3223541975021362,0.44430825114250183,-0.0012161246268078685,4.442937097337563e-06,0.09350528568029404,89.84300231933594,-0.00045777001651003957,0.38010722398757935,-4.389416062622331e-06,0.0,False,False,False,1
16799441.834599,-85.06841278076172,-74.62165069580078,-0.8606436848640442,0.013320643454790115,4.870707988739014,0.0103862090036273,-6.485328049166128e-05,-0.008547233417630196,-0.27374598383903503,0.44390466809272766,-0.0012965928763151169,-9.541187864670064e-06,0.10103215277194977,89.84300231933594,-0.00045776343904435635,0.38003289699554443,2.5974622985813767e-07,0.0,False,False,False,1
16799441.8726106,-85.06791687011719,-74.43912506103516,-0.8604976534843445,0.013318873010575771,4.8704047203063965,0.006852444726973772,-3.2724234188208356e-05,-0.007725827861577272,0.05411570146679878,0.4430556297302246,-0.0012004999443888664,7.979067049745936e-06,0.11011630296707153,89.84296417236328,-0.0004577669024001807,0.3800853490829468,2.5974622985813767e-07,0.0,False,False,False,1
16799441.8943667,-85.067626953125,-74.33454132080078,-0.860420286655426,0.013318131677806377,4.87025785446167,0.0060355449095368385,-3.4546472306828946e-05,-0.006844020448625088,-0.038067933171987534,0.44239383935928345,-0.0012132807169109583,1.6526642866665497e-05,0.11961709707975388,89.84297943115234,-0.00045776370097883046,0.38013899326324463,2.5974622985813767e-07,0.0,False,False,False,1
16799441.8943667,-85.067626953125,-74.33454132080078,-0.860420286655426,0.013317783363163471,4.870126247406006,0.005610032472759485,-1.608709862921387e-05,-0.006078342441469431,-0.01965251937508583,0.4417777955532074,-0.0011081671109423041,2.070710797852371e-05,0.12918619811534882,89.84295654296875,-0.0004577705985866487,0.38018983602523804,2.5974622985813767e-07,0.0,False,False,False,1
16799441.9158788,-85.06732940673828,-74.22901916503906,-0.8603523969650269,0.013317783363163471,4.870126247406006,0.005610032472759485,-1.608709862921387e-05,-0.006078342441469431,-0.01965251937508583,0.4417777955532074,-0.0011081671109423041,2.070710797852371e-05,0.12918619811534882,89.84295654296875,-0.0004577705985866487,0.38023513555526733,-8.158793889379012e-07,0.0,False,False,False,1
16799441.9566817,-85.06680297851562,-74.02940368652344,-0.860230028629303,0.013317995704710484,4.869921684265137,0.005231661256402731,-4.779823939315975e-05,-0.0046745603904128075,-0.022652985528111458,0.4406663477420807,-0.0012360168620944023,-4.32727711086045e-06,0.14725887775421143,89.84296417236328,-0.00045777088962495327,0.38027191162109375,2.5700424544083944e-07,0.0,False,False,False,1
16799441.9566817,-85.06680297851562,-74.02940368652344,-0.860230028629303,0.013317995704710484,4.869921684265137,0.005231661256402731,-4.779823939315975e-05,-0.0046745603904128075,-0.022652985528111458,0.4406663477420807,-0.0012360168620944023,-4.32727711086045e-06,0.14725887775421143,89.84296417236328,-0.00045777088962495327,0.38027191162109375,2.5700424544083944e-07,0.0,False,False,False,1
16799441.9783552,-85.06651306152344,-73.92424774169922,-0.8601800203323364,0.013317790813744068,4.869759559631348,0.004978986456990242,-5.207730282563716e-05,-0.003578229108825326,0.006207501515746117,0.4399093985557556,-0.0011736765736714005,-1.1455842468421906e-05,0.1658574789762497,89.84293365478516,-0.00045776466140523553,0.38033580780029297,2.53904602232069e-07,0.0,False,False,False,1
16799441.9989259,-85.06624603271484,-73.82359313964844,-0.8601291179656982,0.013317790813744068,4.869759559631348,0.004978986456990242,-5.207730282563716e-05,-0.003578229108825326,0.006207501515746117,0.4399093985557556,-0.0011736765736714005,-1.1455842468421906e-05,0.1658574789762497,89.84293365478516,-0.00045776466140523553,0.38033580780029297,2.53904602232069e-07,0.0,False,False,False,1
16799442.1235265,-85.06568908691406,-73.6159439086914,-0.859912633895874,0.01331558357924223,4.869153022766113,0.009175234474241734,-5.397943459684029e-05,-0.018840745091438293,0.11900611966848373,0.17125743627548218,-0.000395752489566803,1.5466732293134555e-05,0.17897826433181763,89.84294891357422,-0.0004577582876663655,0.3804275393486023,2.53904602232069e-07,0.0,False,False,False,1
16799442.1277349,-85.0645523071289,-73.20558166503906,-0.8589619994163513,0.013311952352523804,4.867894649505615,0.013975407928228378,-4.3081745388917625e-05,-0.014929641969501972,0.0569504089653492,-0.02865629643201828,3.138835381832905e-05,2.1695217583328485e-05,0.18138249218463898,89.84294128417969,-0.0004577716754283756,0.3804275393486023,2.53904602232069e-07,0.0,False,False,False,1
16799442.1291227,-85.06449127197266,-73.185791015625,-0.8588845729827881,0.01331174187362194,4.867828845977783,0.01887969858944416,-5.1760500355158e-05,-0.016182254999876022,1.2060521841049194,-0.02946237288415432,0.00010899181506829336,2.191161001974251e-05,0.18126638233661652,89.84294128417969,-0.0004577716754283756,0.3804275393486023,2.53904602232069e-07,0.0,False,False,False,1
16799442.1324148,-85.064453125,-73.17098236083984,-0.85882568359375,0.013311644084751606,4.867788791656494,0.019196102395653725,-3.215363176423125e-05,-0.013170127756893635,0.10403568297624588,-0.03082720935344696,7.547774293925613e-05,2.1732152163167484e-05,0.18126638233661652,89.84294128417969,-0.0004577716754283756,0.3804275393486023,2.53904602232069e-07,0.0,False,False,False,1
16799442.1324148,-85.064453125,-73.17098236083984,-0.85882568359375,0.013311644084751606,4.867788791656494,0.019196102395653725,-3.215363176423125e-05,-0.013170127756893635,0.10403568297624588,-0.03082720935344696,7.547774293925613e-05,2.1732152163167484e-05,0.18126638233661652,89.84294128417969,-0.0004577716754283756,0.3804275393486023,2.53904602232069e-07,0.0,False,False,False,1
16799442.1701892,-85.06394958496094,-72.98948669433594,-0.858208954334259,0.013309786096215248,4.867125034332275,0.018721379339694977,-5.87279828323517e-05,-0.022301368415355682,0.18328166007995605,0.041833266615867615,2.278406645928044e-05,2.306518581463024e-05,0.18033747375011444,89.84293365478516,-0.0004577516228891909,0.3811042308807373,2.53904602232069e-07,0.0,False,False,False,1
16799442.1921214,-85.06365966796875,-72.88294219970703,-0.8577736616134644,0.013307509943842888,4.866227626800537,0.022042814642190933,-0.0001039984927047044,-0.04100298136472702,0.15175797045230865,0.206825852394104,-0.0005577850388363004,2.2186462956597097e-05,0.18377305567264557,89.84292602539062,-0.00045775840408168733,0.38125282526016235,2.53904602232069e-07,0.0,False,False,False,1
16799442.2134207,-85.06336975097656,-72.77958679199219,-0.857295572757721,0.013305282220244408,4.865370273590088,0.024952584877610207,-0.0001049100756063126,-0.04037529230117798,0.13702966272830963,0.30811551213264465,-0.0008272744598798454,2.233821760455612e-05,0.18967434763908386,89.84293365478516,-0.0004577652143780142,0.3815557360649109,2.53904602232069e-07,0.0,False,False,False,1
16799442.2134207,-85.06336975097656,-72.77958679199219,-0.857295572757721,0.013305282220244408,4.865370273590088,0.024952584877610207,-0.0001049100756063126,-0.04037529230117798,0.13702966272830963,0.36987853050231934,-0.0009772569173946977,5.2067316573811695e-05,0.19694165885448456,89.84293365478516,-0.00045777211198583245,0.38184499740600586,7.921346423245268e-07,0.0,False,False,False,1
16799442.2340268,-85.06310272216797,-72.67887878417969,-0.8567925095558167,0.013302036561071873,4.864568710327148,0.026918960735201836,-0.00015687545237597078,-0.03874269872903824,0.09504266828298569,0.36987853050231934,-0.0009772569173946977,5.2067316573811695e-05,0.19694165885448456,89.84293365478516,-0.00045777211198583245,0.38184499740600586,7.921346423245268e-07,0.0,False,False,False,1
16799442.254907,-85.0628433227539,-72.57711029052734,-0.8562613725662231,0.013301569037139416,4.863801002502441,0.02810380607843399,-2.235737156297546e-05,-0.0367124080657959,0.05666026100516319,0.40847817063331604,-0.00123313395306468,-2.4195960577344522e-05,0.20524033904075623,89.84294128417969,-0.00045777237392030656,0.3821161985397339,-8.209460702346405e-07,0.0,False,False,False,1
16799442.2968299,-85.06228637695312,-72.37389373779297,-0.8551563024520874,0.013298291712999344,4.862403869628906,0.02945282682776451,-3.345704681123607e-05,-0.03233632445335388,0.025708789005875587,0.44515281915664673,-0.0012023784220218658,-4.740756776300259e-05,0.2233266830444336,89.84294128417969,-0.00045775948092341423,0.38262367248535156,-8.240456850217015e-07,0.0,False,False,False,1
16799442.3178213,-85.0619888305664,-72.27104187011719,-0.8545868396759033,0.01329720113426447,4.86176872253418,0.029650811105966568,-5.158912972547114e-05,-0.030045226216316223,0.009365519508719444,0.4527677297592163,-0.0013184050330892205,-7.098510104697198e-05,0.23285479843616486,89.84293365478516,-0.00045777318882755935,0.3828533887863159,-8.275029586002347e-07,0.0,False,False,False,1
16799442.3178213,-85.0619888305664,-72.27104187011719,-0.8545868396759033,0.01329720113426447,4.86176872253418,0.029650811105966568,-5.158912972547114e-05,-0.030045226216316223,0.009365519508719444,0.4527677297592163,-0.0013184050330892205,-7.098510104697198e-05,0.23285479843616486,89.84293365478516,-0.00045777318882755935,0.3828533887863159,-8.275029586002347e-07,0.0,False,False,False,1
16799442.3392314,-85.06169891357422,-72.16716766357422,-0.8540096879005432,0.013295984826982021,4.861174583435059,0.029728680849075317,-5.6961893278639764e-05,-0.02782462164759636,0.003646782599389553,0.4563739001750946,-0.0012816099915653467,-8.14492887002416e-05,0.24257415533065796,89.84293365478516,-0.0004577601794153452,0.3830706477165222,-8.31079432828119e-07,0.0,False,False,False,1
16799442.4435446,-85.06034851074219,-71.66889190673828,-0.8513432741165161,0.013285604305565357,4.85887336730957,0.028780000284314156,-8.467576844850555e-05,-0.021624339744448662,-0.012980121187865734,0.4536522328853607,-0.0012463015737012029,7.176536018960178e-05,0.2893472909927368,89.84294891357422,-0.0004577485378831625,0.3832741975784302,7.86233442795492e-07,0.0,False,False,False,1
16799442.4449442,-85.060302734375,-71.64925384521484,-0.8512201309204102,0.013285315595567226,4.858776569366455,0.033122703433036804,-7.145932613639161e-05,-0.02395869977772236,1.0748732089996338,0.452554851770401,-0.0011297661112621427,7.297485717572272e-05,0.29117095470428467,89.84294128417969,-0.0004577619838528335,0.3841969966888428,7.86293071541877e-07,0.0,False,False,False,1
16799442.4476349,-85.06027221679688,-71.63746643066406,-0.8511452078819275,0.013285169377923012,4.858730792999268,0.03356819599866867,-6.034070975147188e-05,-0.0188908688724041,0.1838446855545044,0.4520946741104126,-0.001240901998244226,7.276505493791774e-05,0.29226377606391907,89.84293365478516,-0.00045777534251101315,0.3841969966888428,7.86293071541877e-07,0.0,False,False,False,1
16799442.465566,-85.0600357055664,-71.55272674560547,-0.8506900668144226,0.013284691609442234,4.8584442138671875,0.02875693514943123,-2.7410857001086697e-05,-0.016441812738776207,-0.2760349214076996,0.4517093002796173,-0.0012598035391420126,4.7752346290508285e-05,0.30014580488204956,89.84294128417969,-0.0004577756335493177,0.38410335779190063,2.4985124014165194e-07,0.0,False,False,False,1
16799442.4867161,-85.05974578857422,-71.45060729980469,-0.8501086831092834,0.013284155167639256,4.85809850692749,0.030098536983132362,-2.55353661486879e-05,-0.016456125304102898,0.06386208534240723,0.4500637650489807,-0.0012444712920114398,3.2916348573053256e-05,0.3096124529838562,89.84294128417969,-0.00045776271144859493,0.3842122554779053,2.4985124014165194e-07,0.0,False,False,False,1
16799442.4867161,-85.05974578857422,-71.45060729980469,-0.8501086831092834,0.013284155167639256,4.85809850692749,0.030098536983132362,-2.55353661486879e-05,-0.016456125304102898,0.06386208534240723,0.4500637650489807,-0.0012444712920114398,3.2916348573053256e-05,0.3096124529838562,89.84294128417969,-0.00045776271144859493,0.3842122554779053,2.4985124014165194e-07,0.0,False,False,False,1
16799442.5291464,-85.05915832519531,-71.24436950683594,-0.8489691615104675,0.01328195445239544,4.857516288757324,0.02909400314092636,-6.232909800019115e-05,-0.013006353750824928,-0.02228003367781639,0.4473414719104767,-0.00118657061830163,5.289945693220943e-05,0.3286345303058624,89.84294128417969,-0.0004577636136673391,0.3844336271286011,7.875448204686109e-07,0.0,False,False,False,1
16799442.5495844,-85.05889129638672,-71.1454849243164,-0.8484290838241577,0.013281682506203651,4.85727596282959,0.029020722955465317,-1.3367850442591589e-05,-0.011813517659902573,-0.003602178068831563,0.44614744186401367,-0.0011508791940286756,3.562089477782138e-05,0.3377186954021454,89.84294128417969,-0.00045776396291330457,0.3845297694206238,2.511030174900952e-07,0.0,False,False,False,1
16799442.5711109,-85.05860137939453,-71.04072570800781,-0.8478713035583496,0.01328133326023817,4.857050895690918,0.028392646461725235,-1.620247530809138e-05,-0.010441480204463005,-0.02913818694651127,0.4448740780353546,-0.0013024189975112677,2.6253805117448792e-05,0.34731510281562805,89.84293365478516,-0.0004577510990202427,0.3846123218536377,2.511030174900952e-07,0.0,False,False,False,1
16799442.5711109,-85.05860137939453,-71.04072570800781,-0.8478713035583496,0.01328133326023817,4.857050895690918,0.028392646461725235,-1.620247530809138e-05,-0.010441480204463005,-0.02913818694651127,0.4448740780353546,-0.0013024189975112677,2.6253805117448792e-05,0.34731510281562805,89.84293365478516,-0.0004577510990202427,0.3846123218536377,2.511030174900952e-07,0.0,False,False,False,1
16799442.5922403,-85.05831146240234,-70.93778228759766,-0.8473252058029175,0.013280193321406841,4.8568501472473145,0.02830374240875244,-5.382045856094919e-05,-0.009478028863668442,-0.004197468049824238,0.44393110275268555,-0.0011565049644559622,5.294386937748641e-05,0.35672709345817566,89.84294891357422,-0.0004577782528940588,0.3846907615661621,7.890946562838508e-07,0.0,False,False,False,1
16799442.6345849,-85.05775451660156,-70.73162841796875,-0.8462421894073486,0.013282082043588161,4.856510639190674,0.028126219287514687,2.787717676255852e-05,-0.0075739589519798756,0.006416156888008118,0.4421073794364929,-0.001187787507660687,-6.0666108765872195e-05,0.3755101263523102,89.84294891357422,-0.00045776585466228426,0.3848230242729187,-8.26370410322852e-07,0.0,False,False,False,1
16799442.6345849,-85.05775451660156,-70.73162841796875,-0.8462421894073486,0.013282082043588161,4.856510639190674,0.028126219287514687,2.787717676255852e-05,-0.0075739589519798756,0.006416156888008118,0.4421073794364929,-0.001187787507660687,-6.0666108765872195e-05,0.3755101263523102,89.84294891357422,-0.00045776585466228426,0.3848230242729187,-8.26370410322852e-07,0.0,False,False,False,1
16799442.7351608,-85.05745697021484,-70.62841033935547,-0.8457048535346985,0.01328229159116745,4.856368064880371,0.027832362800836563,9.865427273325622e-06,-0.0067123486660420895,-0.01383466087281704,0.4414938986301422,-0.0011659943265840411,-7.746503251837566e-05,0.3848743140697479,89.84293365478516,-0.00045775301987305284,0.3848764896392822,-8.29827740744804e-07,0.0,False,False,False,1
16799442.7401587,-85.05635833740234,-70.2144775390625,-0.8436464667320251,0.013283105567097664,4.855902194976807,0.03174888715147972,-5.756172413384775e-06,-0.010582984425127506,1.3153194189071655,0.43901464343070984,-0.0011571089271456003,-9.24400519579649e-05,0.4223652184009552,89.84288787841797,-0.0004577685031108558,0.3848764896392822,-8.427031161772902e-07,0.0,False,False,False,1
16799442.7401587,-85.05635833740234,-70.2144775390625,-0.8436464667320251,0.013283105567097664,4.855902194976807,0.03174888715147972,-5.756172413384775e-06,-0.010582984425127506,1.3153194189071655,0.43901464343070984,-0.0011571089271456003,-9.24400519579649e-05,0.4223652184009552,89.84288787841797,-0.0004577685031108558,0.3848764896392822,-8.427031161772902e-07,0.0,False,False,False,1
16799442.7428869,-85.05632781982422,-70.20204162597656,-0.8435712456703186,0.013283218257129192,4.855892658233643,0.031940046697854996,-5.0028887926600873e-05,-0.00256147887557745,-0.26989132165908813,0.4388294517993927,-0.0011998015688732266,-4.109671135665849e-05,0.43108054995536804,89.8428726196289,-0.00045776902697980404,0.3850802183151245,2.3018051820145047e-07,0.0,False,False,False,1
16799442.7815873,-85.05583190917969,-70.01656341552734,-0.8425946831703186,0.01328342780470848,4.855771064758301,0.028723319992423058,5.156799670658074e-05,-0.0037032519467175007,0.06979074329137802,0.43845778703689575,-0.0011601028963923454,-6.875267717987299e-05,0.4402329921722412,89.84286499023438,-0.00045776955084875226,0.3851052522659302,-8.458027309643512e-07,0.0,False,False,False,1
