timestamp,accelerometer_x,accelerometer_y,accelerometer_z,gyroscope_x,gyroscope_y,gyroscope_z,compass
16799433.89,3.138852119,65407.49219,-53642.15234,1787.065308,0.001816247,-0.000372521,0.000952601
16799434.08,3.138852119,-0.22621496,0.002267514,9.80287075,0.000216199,-0.000609901,0.000406926
16799434.1,3.138852119,-0.225957334,-0.00518275,9.819278717,0.001242922,0.000345139,-0.000866252
16799434.11,3.138852119,-0.306322366,-0.000872497,9.89155674,0.000505004,-0.000303313,0.000683591
16799434.13,3.138852119,-0.30510968,0.037981302,9.87088871,0.000530711,-0.000226452,-0.001670045
16799434.13,3.138852119,-0.263578415,0.062098525,9.735614777,0.000956516,-0.000280245,-0.000811866
16799434.19,3.138852119,-0.223737851,0.005146776,9.784080505,-0.001198905,0.001404333,6.45E-05
16799434.19,3.138852119,-0.220300719,-0.006168108,9.774535179,-0.000191249,-3.24E-05,0.001313202
16799434.24,3.138852119,-0.206179604,-0.009217622,9.874221802,-0.001138852,-0.001467094,2.67E-05
16799434.37,3.138852119,-0.22454074,0.002195582,9.769859314,-0.000364241,-0.000243693,0.002246404
16799434.38,3.138852119,-0.226557016,0.001327209,9.917580605,0.000349711,-0.000592686,-0.000238822
16799434.39,3.138852119,-0.300392956,0.000828091,9.579566956,-0.00089105,-0.00010201,-0.000427358
16799434.42,3.138852119,-0.242068455,-0.001009416,9.621783257,0.000232935,-0.001149051,0.000308714
16799434.44,3.138852119,-0.235710502,0.011053782,9.813166618,-0.000166087,-0.000176191,0.000121849
16799434.44,3.138852119,-0.214249581,-0.010028167,9.795197487,-0.001055001,0.000107175,-0.001530029
16799434.47,3.138852119,-0.222834587,-0.009059208,9.77606678,0.000107001,-0.001822093,-0.000663824
16799434.5,3.138852119,-0.235284612,-0.004129154,9.842997551,-0.000686271,-0.001696947,-0.000909883
16799434.69,3.138852119,-0.243681774,0.005390714,9.801437378,2.07E-06,-0.000813207,-0.001568797
16799434.69,3.138852119,-0.217511043,-0.003061973,9.794753075,0.00089419,0.000401261,-0.000782019
16799434.69,3.138852119,-0.226883262,0.039681666,9.906628609,-0.000222775,-0.001445914,-0.001450063
16799434.69,3.138852119,-0.850081444,0.159245133,9.122847557,0.002022931,0.000129904,-0.001211763
16799434.7,3.138852119,-0.204154029,-0.079236738,9.868788719,-0.000569733,0.00127588,-0.000633321
16799434.76,3.138852119,-0.224187016,-0.009035286,9.75944519,-0.001433037,-0.001202172,0.002088922
16799434.78,3.138852119,-0.213202775,0.009762828,9.780179977,0.00036361,-0.000910049,-0.000299046
16799434.82,3.138852119,-0.210506201,-0.010958713,9.800323486,-0.001409375,-0.000866965,0.000436536
16799434.97,3.138852119,-0.23506856,0.010043727,9.800020218,0.000277937,0.001762211,5.24E-05
16799434.97,3.138852119,-0.229740024,0.0037055,9.792943954,-0.001306901,0.000822043,-0.001678847
16799434.97,3.138852119,-0.266724169,0.000794717,9.914258003,0.000877385,0.000367644,0.001257095
16799434.97,3.138852119,-0.213817447,0.319186509,9.335443497,2.83E-05,-0.000804034,0.000694058
16799434.99,3.138852119,-0.342166811,0.159171849,9.623023987,0.001200313,-0.000200202,-0.001723272
16799434.99,3.138852119,-0.214626178,-0.019598439,9.798751831,-0.000544027,0.001156427,3.16E-05
16799435.06,3.138852119,-0.234496728,-0.00578788,9.790347099,-0.000508416,0.000773167,0.000630253
16799435.06,3.138852119,-0.233910158,0.0212541,9.802357674,0.000781188,4.58E-05,0.000378121
16799435.12,3.138852119,-0.223035231,0.016292891,9.820225716,-0.001522919,-0.000243691,-2.76E-05
16799435.27,3.138852119,-0.245985717,0.008285193,9.82639122,-0.000286532,-0.000227327,-0.001237045
16799435.27,3.138830423,1.456160665,0.004607051,9.774861336,-0.001309499,-0.010567372,0.000634016
16799435.27,3.138852119,8.178702354,-0.017389735,9.867336273,-0.001922005,-0.008698339,0.00066119
16799435.27,3.138830423,15.15233803,-0.436677366,9.409502983,-0.000732039,-0.008852216,0.000835336
16799435.28,3.138830423,13.07113171,-0.082123347,9.535054207,0.001453398,-0.009758161,-0.001404404
16799435.3,3.138874054,9.805847168,-0.00499855,9.84536171,-0.000243762,-0.006872744,0.000521007
16799435.34,3.138874054,8.468821526,-0.006447583,9.791447639,-0.000334735,-0.004998192,0.001579701
16799435.4,3.138852119,6.820793152,-0.00220397,9.83071804,0.000400283,-0.003668741,0.001106713
16799435.43,3.138874054,5.790352345,-0.007573786,9.824466705,0.001100145,-9.75E-05,-0.000436431
16799435.43,3.138874054,5.120712757,-0.005381822,9.7523489,-0.000134287,9.23E-05,-6.42E-06
16799435.58,3.138874054,-1.554983497,0.006703145,9.830366135,0.001255977,0.00233083,0.000541748
16799435.58,3.138852119,8.747835159,0.025809374,9.897961617,-0.000275629,0.001273527,-0.000144603
16799435.58,3.138852119,4.124950886,0.171653569,9.055686951,-0.00022397,0.000649176,-0.000594376
16799435.61,3.138852119,2.783797503,0.048236407,9.990271568,-0.001407932,0.002734513,0.000545013
16799435.61,3.138852119,3.110933781,0.039334431,9.653939247,0.000186025,0.002345576,-0.000664217
16799435.64,3.138874054,2.82505393,0.009945553,9.816354752,0.000906884,0.003044757,0.000151004
16799436.64,3.138852119,2.646137238,0.019618863,9.84885025,-0.001621454,0.001125656,-0.000839851
16799436.64,3.138874054,2.650928259,-0.012552352,9.770609856,-0.000583453,0.00314508,0.000465016
16799436.64,3.138852119,-4.786094666,-0.00203741,9.798203468,-3.89E-05,0.000524318,0.000170198
16799436.64,3.138852119,10.86269283,0.029413551,9.888023376,0.000990142,0.000677534,-0.000367021
16799436.64,3.138830423,2.835378408,-0.153088942,9.294994354,-0.001505387,0.002577007,-0.00138107
16799436.64,3.138830423,2.346409798,0.086814158,9.699166298,0.002230321,0.00090413,0.001116497
16799436.64,3.138830423,2.383674383,0.0175977,9.806731224,-0.000456912,-0.000425769,-0.002424744
16799436.64,3.138852119,2.375409842,-0.021551764,9.788769722,-0.000200067,0.000180924,0.001842888
16799436.64,3.138852119,2.283450603,-0.004284876,9.818944931,-0.00075464,0.001252915,-0.000448862
16799436.64,3.138852119,2.313129187,0.006493837,9.795212746,-0.002188425,0.000136304,0.001353757
16799436.64,3.138830423,2.312101364,-0.003727909,9.794669151,-0.00073053,0.001923264,0.001357863
16799436.64,3.138852119,-8.974820137,0.002062418,9.808129311,0.000435999,0.001684703,-0.001005879
16799436.64,3.138852119,14.26139259,0.020283394,9.882668495,2.94E-05,0.000650124,0.001070338
16799436.64,3.138852119,2.991536856,-0.472330153,9.424031258,0.000351456,-1.62E-05,5.05E-05
16799436.64,3.138852119,2.468011856,0.007023271,9.57554245,0.00064685,0.000523592,0.000639354
16799436.64,3.138852119,2.241533756,-0.05451338,9.806126595,-0.002173664,0.001235627,0.00031729
16799436.64,3.138852119,2.140952587,0.016551815,9.811137199,0.000933618,0.001608336,-0.002036458
16799436.64,3.138852119,2.072900057,-0.008434314,9.791410446,0.000923191,0.000945263,-0.000669799
16799436.64,3.138830423,1.989454031,-0.013122631,9.787179947,-0.000987816,0.001809416,0.000273094
16799436.64,3.138830423,-10.25016785,-0.003118899,9.819374084,-3.37E-05,0.001595687,9.98E-05
16799436.64,3.138830423,15.18259144,-0.016687416,9.88474369,-0.000914442,-0.001537642,-7.81E-05
16799436.64,3.138852119,1.876302123,-0.153203309,9.163375854,0.000399783,0.000132688,-0.000351623
16799436.64,3.138830423,1.458722591,0.004327535,9.894291878,0.002128584,-0.001143758,0.000784901
16799436.64,3.138830423,1.412391901,0.004173322,9.738929749,0.000548387,0.000192701,-0.000655123
16799436.64,3.138852119,1.281879663,-0.011172437,9.764300346,7.09E-06,0.001535374,0.001701012
16799436.64,3.138852119,1.008195758,0.009549046,9.877484322,0.000739554,0.000405867,-0.000337184
16799436.64,3.138830423,0.960833669,-0.001714843,9.730900764,-0.002243272,0.001185615,0.001440472
16799436.8,3.138852119,0.778499246,-0.015514569,9.83544445,0.001172626,-0.000364193,0.001035675
16799436.8,3.138852119,-16.00212288,0.005839817,9.809143066,3.84E-05,0.000564696,0.000564197
16799436.81,3.138852119,19.10068703,-0.007746666,9.856747627,0.000300759,0.001155696,-0.00046521
16799436.81,3.138852119,0.093584754,3.68E-05,10.00924301,-0.00087191,0.000781922,0.00038359
16799436.84,3.138852119,0.543162882,-0.078115053,9.609265327,7.09E-05,-0.000126439,-0.000264529
16799436.88,3.138852119,0.244263545,-0.003610427,9.742321014,-0.0004127,0.00014968,-0.001025164
16799436.91,3.138852119,0.177059337,0.022789303,9.784450531,-0.000327784,0.003480044,-0.001090525
16799436.91,3.138852119,0.05747769,0.025893429,9.811653137,4.21E-05,0.001047217,0.000547011
16799437.06,3.138852119,-6.883644104,-0.003969099,9.808348656,0.00061828,0.002171732,-0.001062954
16799437.06,3.138830423,8.774482727,0.024653921,9.900074005,0.000666419,-0.000530811,-0.001482849
16799437.07,3.138830423,-0.226522282,-0.639988661,10.03665161,0.000471737,-0.000299366,-0.0023839
16799437.09,3.138830423,-0.170803815,0.00085021,9.237457275,0.000777217,0.00089345,-0.000210199
16799437.09,3.138874054,-0.108624712,0.004809347,9.854193687,0.000216523,-0.000708843,-0.001139175
16799437.15,3.138874054,-0.132659927,-0.038962081,9.787626266,-0.000567757,0.001165787,2.49E-05
16799437.19,3.138852119,-0.164194763,0.045689989,9.783703804,0.00033118,0.001035944,-0.0006161
16799437.19,3.138874054,-0.205146194,0.005882048,9.828917503,0.001336414,-0.000567395,0.000963032
16799437.22,3.138852119,-0.201646701,-0.00935464,9.753996849,-0.001034851,0.000567228,0.001384493
16799437.37,3.138852119,-11.00666523,-0.003223864,9.813678741,0.000799493,0.00075094,7.24E-05
16799437.37,3.138852119,12.67784882,-0.002915401,9.897307396,0.00085117,0.000826532,-0.000884743
16799437.38,3.138852119,1.049646616,0.002600267,10.07137108,-0.000171534,-0.000289195,-0.001924769
16799437.4,3.138874054,-0.196771726,0.101038784,9.480453491,-0.000754995,0.000763634,-0.000492617
16799437.43,3.138874054,-0.232909307,-0.019230239,9.771857262,0.000348575,-0.001106907,-0.001873826
16799437.46,3.138874054,-0.256359607,0.051612083,9.879318237,0.000982548,-0.003194636,0.000863405
16799437.5,3.138852119,-0.222875684,-0.031147547,9.839011192,-0.000943767,-0.005264746,-1.22E-05
16799437.52,3.138852119,-0.240436658,0.010514867,9.791952133,-0.000468634,-0.004735576,0.00083543
16799437.68,3.138852119,-0.262120903,0.018705111,9.865147591,-0.000977761,-0.005774594,0.001822039
16799437.69,3.138874054,-12.56053829,-0.005505228,9.804821014,2.23E-05,-0.004978121,0.001296492
16799437.69,3.138874054,14.94579792,0.00179682,9.901928902,0.000179805,-0.001174939,0.000584288
16799437.69,3.138874054,-0.526153445,-0.001005929,9.403223991,-0.000560481,-0.004215336,-0.000431994
16799437.71,3.138874054,-0.293551683,-0.001357493,9.714243889,-0.00039533,-0.004078955,0.000433111
16799437.71,3.138852119,-0.263510436,-0.029510792,9.77273941,-0.001391049,-0.002926616,0.001444552
16799437.77,3.138874054,-0.232396126,0.027748534,9.806458473,0.001509807,-0.005130178,-0.000865098
16799437.77,3.138874054,-0.249948189,0.010303023,9.775823593,0.001955037,-0.003926735,5.97E-05
16799437.84,3.138874054,-0.241540819,0.002848422,9.823866844,0.000718509,-0.003105183,0.00021105
16799437.84,3.138852119,-0.227385789,0.001746977,9.7964077,0.001263811,-0.005024226,0.000472906
16799437.99,3.138852119,-12.76497746,0.001080844,9.802304268,-0.002419603,-0.004103478,-0.000665132
16799438,3.138874054,14.97877979,0.042637814,9.883599281,0.001726671,-0.003125845,-0.0011786
16799438,3.138874054,-0.516765475,-0.321486086,9.511369705,-0.00163373,-0.004229257,-0.001405827
16799438.03,3.138874054,-0.278712004,0.039792955,9.6531744,-0.000227548,-0.003953335,-0.000526422
16799438.06,3.138852119,-0.232297391,0.011346147,9.798299789,0.000816488,-0.003598538,0.00065576
16799438.06,3.138852119,-0.23083666,-0.019285765,9.784694672,9.28E-05,-0.004259218,-6.49E-05
16799438.09,3.138852119,-0.232922986,-0.000175364,9.88055706,0.002634036,-0.002746555,5.53E-05
16799438.12,3.138852119,-0.233156696,-0.031829063,9.860847473,5.40E-05,-0.002399198,-0.000856224
16799438.27,3.138874054,-12.52371597,0.010998351,9.833217621,0.000393233,-0.001558723,0.000109995
16799438.27,3.138852119,14.2580843,0.019359836,9.940921783,-0.000212283,-0.001529658,0.000380781
16799438.28,3.138874054,-0.841172516,-0.320787698,9.935116768,0.001488515,-0.004361335,0.000316223
16799438.28,3.138852119,0.004741736,0.080411233,9.556422234,0.000603118,-0.004337365,-0.000564634
16799438.3,3.138874054,-0.217460662,0.020541459,9.89726162,0.000617978,-0.008591712,0.000118528
16799438.36,3.138852119,-0.236229211,-0.008637606,9.920163155,0.000454337,-0.007890934,-0.000584086
16799438.36,3.138830423,-0.181397423,-0.029560193,9.811938286,-0.00020424,-0.008354828,-0.000657231
16799438.4,3.138830423,-0.219637141,0.010885289,9.836334229,0.000954122,-0.006150903,0.002269346
16799438.43,3.138852119,-0.2150774,0.030846771,9.78120327,0.001381927,-0.008487297,0.001641252
16799438.58,3.138895988,-14.58820248,-0.004034859,9.801009178,0.000753615,-0.00789102,-0.000805501
16799438.59,3.138874054,16.62060547,0.004351071,9.892653465,-0.00033379,-0.007962873,-0.000608032
16799438.59,3.138874054,1.103460431,-2.556436539,10.07155609,-0.001806501,-0.009865022,-0.000519451
16799438.62,3.138874054,0.208426759,-0.179535091,9.555336952,0.001492067,-0.007070285,-0.001345715
16799438.62,3.138874054,-0.214809537,-0.006719842,9.759579659,-0.001001064,-0.009782473,-0.000487401
16799438.68,3.138874054,-0.172334313,0.001036729,9.798848152,-0.001562982,-0.008092226,-0.000457804
16799438.72,3.138852119,-0.187553048,0.004099839,9.759325981,0.000107029,-0.008303035,0.000424301
16799438.72,3.138852119,-0.162460655,-0.002144098,9.831401825,-0.001298264,-0.005357751,-0.001918571
16799438.87,3.138874054,-9.447861671,-0.003319436,9.81577301,0.001558516,-0.009003934,-0.00070974
16799438.87,3.138852119,11.48285007,-0.027044762,9.881134987,0.002290151,-0.006974172,-0.001161875
16799438.87,3.138874054,0.649188101,0.002356656,9.371257782,0.001683319,-0.008018421,-0.000196852
16799438.88,3.138852119,-0.314051807,0.001135715,9.602091789,-0.001375997,-0.008756902,0.000551634
16799438.9,3.138874054,-0.195857987,-0.008733939,9.905633926,-0.000952766,-0.003914848,0.000524056
16799438.97,3.138852119,-0.215832293,0.020732054,9.947664261,-0.000140148,-0.000879631,-0.00138741
16799438.99,3.138830423,-0.192272335,-0.030597342,9.919654846,-0.000579375,0.000476319,-0.000561745
16799438.99,3.138852119,-0.169198066,-0.005603236,9.836464882,0.001394431,0.000545811,-0.00131816
16799439.03,3.138852119,-0.180045858,-0.00368079,9.860694885,3.20E-06,0.000394605,0.001921235
16799439.19,3.138852119,-10.32480717,0.000385834,9.880395889,0.00055559,-0.005957297,-0.000286459
16799439.19,3.138852119,12.41196156,-0.026586387,9.954684258,0.001773313,-0.005046062,-0.000553681
16799439.2,3.138830423,-0.303559482,-0.160003901,9.693386078,0.000246566,-0.006469004,-2.96E-05
16799439.2,3.138852119,-0.183552727,0.11809776,9.727655411,-0.000739626,-0.007662931,-0.00048768
16799439.21,3.138830423,-0.232818708,0.038484577,9.769748688,-0.00107108,-0.007865416,-0.002048472
16799439.28,3.138830423,-0.151721165,-0.005502643,9.7917099,-0.001102169,-0.008628104,0.00249964
16799439.31,3.138830423,-0.167730376,-0.009785585,9.764590263,6.81E-05,-0.007369758,-0.000496083
16799439.34,3.138830423,-0.169643193,0.019864922,9.8307724,-0.001206226,-0.007140895,0.000919408
16799439.34,3.138830423,-0.123582892,-0.024759782,9.841762543,-0.000252556,-0.008707286,0.0005819
16799439.49,3.138852119,-8.802780151,-0.00051583,9.791086197,4.18E-05,-0.00760075,-0.002027371
16799439.49,3.138852119,10.73371792,0.00881429,9.890534401,0.000327345,-0.00936993,-2.22E-05
16799439.49,3.138852119,-0.92049104,-0.161956966,9.474636078,0.002097666,-0.007229251,0.001234722
16799439.5,3.138852119,-0.180934638,0.058274876,9.657660484,0.001720727,-0.00848493,-0.00167176
16799439.55,3.138852119,-0.122719213,-0.019650502,9.812259674,-6.91E-05,-0.006574982,4.97E-05
16799439.55,3.138852119,-0.108106181,-0.01866208,9.764396667,-0.001855467,-0.009190476,-0.001105512
16799439.58,3.138830423,-0.105524354,-0.019900814,9.745718956,0.000920508,-0.007050085,-0.000616895
16799439.63,3.138852119,-0.127288744,-0.018922649,9.938903809,0.002246422,-0.008107071,0.00177795
16799439.63,3.138852119,-0.07157217,0.019533176,9.638064384,0.001422324,-0.008361552,0.000870394
16799439.73,3.138874054,-0.127325401,-0.013218476,9.847776413,-0.00118059,-0.006632335,0.00075415
16799439.73,3.138874054,-0.110996328,-0.082128659,10.0195713,-0.000543164,-0.005072381,-0.000452911
16799439.74,3.138852119,-0.507155955,0.318731666,9.810441971,-0.001046407,-0.004313836,0.000165583
16799439.74,3.138852119,-0.148374781,0.037782576,9.770428658,-0.000261094,0.000171297,0.000284835
16799439.78,3.138874054,-0.186571628,-0.000501894,9.740805626,0.001209255,-0.001616651,-0.001211038
16799439.78,3.138852119,-0.150902331,0.017570443,10.02999973,0.001279134,-9.01E-05,0.001972763
16799439.82,3.138852119,-0.149782464,0.00151729,9.84838295,-0.000528629,0.00101242,-0.001069357
16799439.84,3.138852119,-0.08705131,0.080043808,9.826475143,-0.000141011,-0.00039206,-0.00259753
16799439.86,3.138874054,-0.126593843,-0.019092793,9.816091537,0.000281052,-0.000964962,-0.001219245
16799439.86,3.138874054,-0.085008606,-0.040263779,9.779652596,0.001089263,-0.002966221,-0.000683454
16799439.88,3.138852119,-0.068134032,-0.02119421,10.11605549,-0.000901293,-0.005771825,-0.000655108
16799439.9,3.138874054,-0.155809954,0.021065192,9.885870934,0.00067087,-0.00362802,-0.001157014
16799440.02,3.138874054,-0.064578101,-0.020296125,9.812445641,-0.000836226,-0.006488413,0.000611457
16799440.02,3.138852119,-0.121355213,-0.020741511,9.846614838,0.00011964,-0.01005807,-0.000753377
16799440.03,3.138874054,-0.179373384,-0.000189495,9.97996521,-0.000533289,-0.008659523,0.000330333
16799440.03,3.138874054,1.186168194,-1.275774956,9.880497932,-0.000795816,-0.007214177,0.001614649
16799440.03,3.138852119,-0.291224331,0.080367625,9.36411953,-0.001248085,-0.006309878,-0.001923973
16799440.07,3.138852119,-0.135677263,-0.019767683,9.866631508,-0.00203507,-0.008018116,-0.002054395
16799440.07,3.138852119,-0.069934495,-0.059267201,9.759647369,0.000415915,-0.006489603,-0.00040847
16799440.11,3.138852119,-0.118810423,0.007979583,9.773803711,0.00218567,-0.008932659,-0.001308934
16799440.13,3.138874054,-0.087352104,-0.020339452,9.696850777,0.000144778,-0.007909083,0.000332301
16799440.13,3.138874054,-0.089171559,-0.059425887,9.919089317,0.000287375,-0.008595279,-0.000422984
16799440.18,3.138874054,-0.147212252,0.019762157,9.812105179,0.000414538,-0.00769557,0.001161201
16799440.18,3.138852119,-0.135162741,0.060233146,9.768601418,-8.71E-05,-0.008753839,0.000202333
16799440.2,3.138852119,-0.041109074,-0.019190378,9.803192139,0.000833923,-0.008250248,0.000140248
16799440.32,3.138874054,-0.100005522,-0.039707754,9.778195381,0.002018254,-0.009159256,0.001689682
16799440.32,3.138852119,-0.074500196,0.000555119,9.784255981,-0.001312511,-0.009702724,0.000247937
16799440.33,3.138874054,0.004962699,-0.078286126,9.956562042,-0.000398063,-0.008777535,-0.000531739
16799440.33,3.138874054,0.568185985,-0.638511658,9.778689384,-0.000145624,-0.009469334,-0.000768026
16799440.33,3.138852119,-0.268301427,0.040035352,9.392625809,0.000801169,-0.00815048,-0.000950583
16799440.35,3.138874054,-0.05203405,0.019559106,9.86495018,6.35E-05,-0.006130779,0.001229769
16799440.37,3.138874054,-0.089604013,0.000175294,9.766104698,-0.001428323,-0.008068196,0.001024519
16799440.39,3.138852119,-0.097751647,0.029917547,9.765088081,-3.27E-06,-0.007171532,-0.001344181
16799440.41,3.138852119,-0.067501836,0.042560216,9.752610207,-0.001740535,-0.007461441,0.000698843
16799440.43,3.138852119,-0.045988694,-0.020101445,9.914401054,-0.000975547,-0.009240778,-0.001413291
16799440.47,3.138874054,-0.103399001,0.08107204,9.795941353,-0.000529129,-0.008129039,0.001414002
16799440.47,3.138852119,-0.101522051,0.001428012,9.725291252,-0.001763221,-0.00542989,0.000855164
16799440.51,3.138852119,-0.122657508,-0.021127621,10.18255329,0.001232865,-0.001662439,-0.001575448
16799440.53,3.138852119,-0.101009324,-0.040621698,9.931941032,-3.64E-05,-0.001625863,-0.000959107
16799440.64,3.138874054,-0.122658633,0.077511109,9.896672249,0.000489904,1.05E-05,-0.000504278
16799440.64,3.138852119,-0.083201267,-0.005819151,9.820866585,-0.000387159,-0.000372626,0.000760835
16799440.64,3.138852119,0.017822452,-0.080017589,9.995595932,-0.00066349,-0.002097687,0.000353483
16799440.64,3.138852119,0.574578583,0.641959727,9.888372421,-0.000329058,-0.001956808,-0.001127614
16799440.66,3.138852119,-0.218885586,0.079044692,9.615822792,0.000905046,-0.002514953,0.000184988
16799440.68,3.138852119,-0.01869693,-0.020426555,9.812793732,0.000986599,-0.006808446,0.00024325
16799440.7,3.138852119,-0.040630765,0.020915151,10.08420277,0.001536277,-0.006078611,0.000526545
16799440.7,3.138852119,-0.078964658,-0.000133566,9.829000473,-0.000229964,-0.005889468,-0.000612804
16799440.74,3.138852119,-0.113886744,0.059514336,9.857174873,-0.00031276,-0.009666392,-0.00058525
16799440.76,3.138852119,-0.054798841,-0.039734259,9.830513954,9.56E-05,-0.006839471,0.000565433
16799440.76,3.138852119,-0.07298696,-0.059865423,9.79780674,0.00186731,-0.008303388,-0.000153837
16799440.8,3.138874054,-0.072049908,0.039890215,9.833729744,0.000540844,-0.007906197,0.000528204
16799440.8,3.138874054,-0.050141383,0.018124197,9.800190926,-0.001356277,-0.007259324,-0.00181268
16799440.92,3.138874054,-0.087152481,-0.061414696,9.796636581,-0.000491681,-0.0063051,0.000389623
16799440.92,3.138852119,-0.064940795,0.023874803,9.779700279,0.000312554,-0.005642451,-0.001087353
16799440.92,3.138874054,-0.082067437,-0.039795298,9.922316551,0.001523289,-0.008053006,0.000871982
16799440.93,3.138874054,-0.684268594,1.278895736,9.748088837,0.001255651,-0.007891061,0.000256775
16799440.93,3.138852119,-0.238626376,0.080350079,9.42749691,-0.000873553,-0.007004062,0.001140686
16799440.97,3.138852119,-0.018259976,-0.00077576,9.86421299,-0.000849414,-0.008105833,0.000314886
16799440.97,3.138874054,-0.075516567,-0.03971504,9.765953064,-0.001801905,-0.007939373,-0.001038508
16799440.99,3.138874054,-0.034182914,-0.018800803,9.800510406,0.000345112,-0.007883784,-0.000395085
16799441.03,3.138874054,-0.01176501,0.039146326,9.80673027,2.94E-05,-0.007887797,0.00094755
16799441.03,3.138852119,-0.051324654,-0.018421711,9.780435562,0.001271861,-0.005726311,-1.41E-06
16799441.05,3.138852119,-0.009442574,-0.057820942,9.810227394,0.001375644,-0.008351003,0.001028828
16799441.07,3.138852119,-0.048364941,-0.019931987,9.795125961,0.000379589,-0.008303135,-0.000930592
16799441.12,3.138874054,-0.014561044,0.040736862,9.785900116,0.000301284,-0.008504774,0.000104333
16799441.12,3.138874054,-0.064110018,0.000957608,9.823251724,-0.000436801,-0.006224128,-0.000371674
16799441.24,3.138852119,-0.005005943,-0.060367815,9.821882248,-0.000962416,-0.007252301,-0.000305219
16799441.24,3.138852119,-0.025240166,0.008605483,9.783261299,-0.000893415,-0.00877644,0.001503753
16799441.24,3.138874054,-0.05552366,-0.002021985,9.945994377,6.42E-05,-0.005131776,6.77E-05
16799441.25,3.138874054,1.261533022,0.644619882,10.09622574,-0.001868018,-0.007074237,-0.000523533
16799441.25,3.138852119,0.025342161,-0.359983236,9.619062424,-9.43E-05,-0.00405322,-0.00101638
16799441.28,3.138874054,-0.055885695,-0.000704305,10.03292084,0.001505367,-0.001459937,-8.69E-05
16799441.28,3.138874054,-0.015976904,-0.100997761,9.895736694,0.000906206,8.16E-05,-0.00038514
16799441.33,3.138874054,-0.035122421,0.020217599,9.838668823,0.001111703,-0.001654192,-0.001098061
16799441.35,3.138874054,-0.025495285,-0.058639348,9.887709618,0.00060055,6.09E-05,-0.000543133
16799441.35,3.138874054,-0.05502471,0.058825288,9.873230934,-0.000550882,4.92E-06,0.000880671
16799441.37,3.138874054,-0.054664962,0.039871242,9.788511276,0.000285964,0.000226324,-0.000996475
16799441.42,3.138874054,0.01357462,-0.019918483,9.957886696,0.000401924,-0.002053896,0.000740242
16799441.44,3.138874054,0.005916229,-0.017550316,9.954714775,-0.002016962,-0.005159806,-0.000557038
16799441.54,3.138874054,-0.05217056,-0.019422855,9.899703979,-0.001267047,-0.006072767,-0.000466528
16799441.54,3.138874054,-0.027264621,-0.03043735,9.832304955,0.001402315,-0.008474523,7.25E-05
16799441.55,3.138874054,-0.04505391,0.039448805,9.932676315,0.001084814,-0.008892366,-0.000730021
16799441.55,3.138874054,-0.006458775,0.000417365,10.08889484,-0.001722146,-0.008157556,-0.000363674
16799441.55,3.138830423,-0.325714856,0.198980838,9.410726547,0.00027033,-0.008727285,0.000908901
16799441.59,3.138852119,-0.023386525,0.078797728,9.855913162,-0.001130986,-0.009457486,-0.000749988
16799441.59,3.138852119,0.008412633,-0.021314792,9.764666557,0.001910733,-0.007726374,-0.001943954
16799441.63,3.138852119,-0.019173935,-0.060224146,9.812566757,-0.003422834,-0.007043372,-0.000678184
16799441.65,3.138852119,-0.018278988,0.077852242,9.801569939,-0.000479507,-0.007041248,0.000806301
16799441.65,3.138830423,-0.024724325,-0.040056977,9.780845642,0.000247321,-0.008874774,0.001228926
16799441.67,3.138852119,-0.024885442,-0.019017525,9.77347374,0.000436834,-0.007318791,-0.000250038
16799441.7,3.138874054,-0.013741642,0.041428596,9.82529068,-0.000277236,-0.008062488,-0.000442246
16799441.72,3.138852119,-0.03128574,0.020477213,9.805932999,9.17E-05,-0.008044251,0.001164924
16799441.83,3.138874054,0.011800637,-0.013233108,9.779348373,0.000852816,-0.006883114,-0.000735908
16799441.83,3.138852119,0.015243552,0.00113143,9.936376572,0.000731211,-0.008100803,-0.000453886
16799441.83,3.138852119,-1.906035542,0.63422209,9.90376091,0.000547919,-0.006186642,0.001118195
16799441.85,3.138874054,0.094256431,0.360959053,9.337720871,0.001184963,-0.007185728,-1.60E-05
16799441.87,3.138852119,-0.001750717,0.079165526,9.880335808,0.000725469,-0.008902061,0.000728656
16799441.87,3.138874054,0.030367244,-0.061795883,9.76901722,0.001426665,-0.007287937,-0.001209207
16799441.89,3.138852119,0.031260055,-0.000732079,9.787951469,0.001486279,-0.008432554,5.09E-05
16799441.92,3.138874054,0.003483432,0.039741833,9.816128731,-0.001350992,-0.007272651,-2.43E-05
16799441.94,3.138874054,0.005147743,0.019598406,9.786179543,-0.000177233,-0.007066299,0.00340508
16799441.98,3.138874054,0.007690731,-0.059951574,9.791151047,-0.000557516,-0.008052045,-0.000557321
16799441.98,3.138874054,0.030407969,0.039660949,9.816683769,0.000551956,-0.007416997,0.000342707
16799442.02,3.138874054,0.009162543,0.038986638,9.840987206,-0.000708099,-0.005146428,0.000867674
16799442.02,3.138852119,-0.057189964,-0.040231366,9.993824959,0.000727213,-0.001621563,-0.001011199
16799442.13,3.138874054,-0.013353129,-0.000182271,9.891007423,-0.00205378,0.000468168,-0.001035133
16799442.13,3.138874054,-0.010314377,0.004003512,9.985815048,-0.001106007,-0.002009721,0.001279016
16799442.13,3.138874054,-0.612106204,1.277791858,9.895810127,-0.001845972,-0.001303739,0.000711078
16799442.15,3.138874054,0.030270599,-0.119727597,9.399744034,0.001266924,0.000865544,-0.000263898
16799442.15,3.138874054,0.032268003,0.039459649,9.946472168,-0.000299664,-0.001662484,0.000238606
16799442.17,3.138852119,0.051479045,-0.021813026,9.915415764,0.000658411,-0.003127022,0.000876441
16799442.19,3.138874054,0.004140303,-0.019887567,9.930439949,0.000417915,-0.005918988,-2.40E-05
16799442.21,3.138874054,0.045602508,0.040419366,9.896320343,6.74E-05,-0.00720779,-0.000889615
16799442.23,3.138874054,0.023922341,-0.02141536,9.861702919,0.00112035,-0.00595385,0.002358985
16799442.28,3.138874054,0.017021405,-0.08145164,9.848300934,-0.001052753,-0.008262049,0.001692693
16799442.28,3.138874054,0.019226946,0.06049341,9.836032867,0.00018572,-0.008386414,-0.001507662
16799442.3,3.138852119,-0.011479286,-0.059542652,9.819558144,-0.00027564,-0.008141764,-0.000509477
16799442.34,3.138852119,0.032152399,-0.038929209,9.814683914,0.000611761,-0.007398709,-0.000579236
16799442.44,3.138874054,0.032790232,0.001523217,9.817849159,0.000377219,-0.006961205,0.00056454
16799442.44,3.138852119,0.01786942,0.020247525,9.78190136,-0.000334111,-0.008586991,-0.000842534
16799442.44,3.138852119,0.01112327,-0.000227182,9.922042847,-0.001783345,-0.011311744,0.001870258
16799442.44,3.138874054,0.690347433,0.002281997,9.936488152,0.002397492,-0.007648422,-0.001169541
16799442.45,3.138852119,0.209369883,-0.480947435,9.326118469,-0.000661052,-0.008749809,-0.000253722
16799442.47,3.138852119,0.033315752,-0.039184067,9.892087936,0.000107819,-0.009887213,0.000886421
16799442.51,3.138874054,0.054664105,0.018009048,9.783700943,-0.000499908,-0.008743215,-0.000898858
16799442.51,3.138874054,0.086003937,-0.021552874,9.786042213,0.000554175,-0.008216386,0.001357671
16799442.53,3.138852119,0.03913277,0.019411981,9.808077812,-0.000525668,-0.007903997,0.000377817
16799442.57,3.138852119,0.008684743,0.001233041,9.776216507,-0.000317803,-0.006483897,-0.001701257
16799442.59,3.138852119,0.051655188,-0.000850139,9.805027962,-0.000813381,-0.007721608,0.001162131
16799442.61,3.138852119,0.032235909,0.019842742,9.794523239,0.001180997,-0.007459674,0.000260095
16799442.63,3.138874054,0.063196488,0.020715492,9.817259789,0.000370199,-0.006432012,0.000381235
16799442.74,3.138852119,0.086588934,-0.060884777,9.794511795,-0.000584768,-0.007905348,0.000679338
16799442.74,3.138852119,0.066124082,0.016292453,9.782952309,2.01E-05,-0.007555459,-0.000225717
16799442.74,3.138852119,0.07366655,-0.041638281,9.934098244,-0.000676148,-0.008937716,-4.23E-05
16799442.74,3.138852119,1.35316813,0.003229953,9.870328903,0.000420187,-0.007966921,-0.000300188
16799442.74,3.138874054,0.11108809,-0.441063643,9.334640503,-0.000392604,-0.007396271,0.000590165
16799442.76,3.138874054,0.095890872,0.040275954,9.895600319,0.000693919,-0.007272712,3.20E-05
16799442.78,3.138874054,-0.002879381,-0.031027602,9.916711807,0.00097972,-0.006179172,0.001355316
16799442.81,3.138852119,-0.021378744,0.060455006,9.883428574,0.001141753,-0.002193072,-0.000375605
16799442.82,3.138852119,0.019395048,-0.021690309,10.06852913,-0.00066486,-0.001807926,-0.000306229
16799442.87,3.138852119,0.047169764,-0.000741213,9.869810104,-0.000463121,0.00132624,-0.000509508
16799442.87,3.138852119,0.077262133,-0.040678542,9.854109764,-0.000670241,-0.000699292,-0.001733929
16799442.89,3.138874054,0.046794485,-0.019757843,9.833729744,0.000148959,0.000736271,-0.000313079
16799442.91,3.138852119,0.076874658,-0.018985815,9.822022438,0.000125923,-0.000108905,0.000137049
16799442.93,3.138874054,0.078188062,0.000616025,9.882381439,0.000450131,-0.001858849,0.000525152
16799443.03,3.138874054,0.075996377,0.015707918,9.904696465,-0.000723775,-0.00677598,0.001318861
16799443.04,3.138874054,0.043749776,0.039746799,9.992207527,-0.000308056,-0.006048267,-0.00099886
16799443.04,3.138874054,1.36894238,-1.916180849,9.80224514,0.000773732,-0.006966566,0.000155724
16799443.06,3.138852119,-0.041102197,0.27984482,9.455342293,-0.002377772,-0.006407981,-0.000854157
16799443.08,3.138852119,0.066163048,-0.000408473,9.904935837,0.000195571,-0.008408638,5.55E-05
16799443.08,3.138852119,0.027734995,0.040331546,9.782101631,0.001501636,-0.006726031,-0.000194358
16799443.1,3.138852119,0.037665602,0.000263704,9.756144524,0.000423368,-0.006397157,0.0006901
16799443.13,3.138874054,0.058713961,-0.001922881,9.792704582,-8.21E-05,-0.008364458,0.000225715
16799443.15,3.138852119,0.042534649,-0.018608226,9.950871468,-0.002131029,-0.009747033,0.000372966
16799443.19,3.138852119,0.092928126,0.020122226,9.772870064,-1.24E-05,-0.007233802,0.000348534
16799443.19,3.138852119,0.055765029,0.039233055,9.80378437,0.000815345,-0.007557489,-0.001319904
16799443.23,3.138852119,0.064955816,-0.060512427,9.78537941,-6.19E-07,-0.009064312,0.00028809
16799443.23,3.138874054,0.12746726,-0.039532594,9.790651321,-0.001503697,-0.010265384,0.001594346
16799443.34,3.138852119,0.085102446,0.0223429,9.774383545,-9.64E-05,-0.008831853,-0.000755072
16799443.34,3.138874054,0.06528841,-1.81E-05,9.91798687,-0.001503542,-0.008644047,-0.001501426
16799443.34,3.138852119,-1.177336693,0.635583103,9.762546539,0.000114825,-0.006789936,0.001640339
16799443.34,3.138852119,0.184454516,-0.279919356,9.450703621,-5.05E-05,-0.007613203,-0.001334784
16799443.38,3.138874054,0.029741701,0.081044301,9.862440109,0.00152359,-0.007168106,-0.001299057
16799443.4,3.138830423,0.090460375,0.000142894,9.763951302,-0.000892848,-0.008237385,-0.000306872
16799443.4,3.138830423,0.110345438,0.0413404,9.814621925,0.000102643,-0.007140188,0.000632371
16799443.42,3.138830423,0.11251127,-0.059889946,9.803988457,-7.31E-05,-0.008167904,-4.69E-06
16799443.44,3.138852119,0.146201789,-0.058672644,9.779629707,-0.00046815,-0.008455125,-0.00058238
16799443.47,3.138852119,0.126993746,-0.02046424,9.807393074,0.00175508,-0.00801482,0.000899924
16799443.51,3.138830423,0.096451528,0.039043758,9.799576759,-0.000145768,-0.008644084,-0.000858146
16799443.53,3.138830423,0.108818077,0.021053946,9.801229477,0.000404641,-0.008030894,0.000963471
16799443.53,3.138852119,0.111516006,0.040647738,9.82201004,0.00145468,-0.008307133,0.000303575
16799443.63,3.138830423,0.062131926,0.008440741,9.916338921,-0.000607385,-0.000720017,0.000497422
16799443.63,3.138830423,0.083857954,0.019337308,9.993612289,-0.000788262,-0.001369449,0.000304438
16799443.64,3.138830423,-0.511028767,0.638391197,10.22262955,-0.000386674,0.000950754,0.000127565
16799443.64,3.138852119,0.078097552,-0.0399312,9.494019508,7.10E-05,-0.001508106,-0.000746148
16799443.68,3.138830423,0.083792202,-0.001051158,9.857959747,5.27E-05,0.000691377,0.00065266
16799443.68,3.138830423,0.123640873,-0.020413291,9.820607185,-0.000165787,0.000231676,0.000805312
16799443.7,3.138830423,0.122810192,0.018859036,9.814250946,0.001128362,0.000192587,-2.18E-05
16799443.72,3.138852119,0.101898581,0.020781668,9.91587162,-0.000825085,-0.002566889,-0.001211675
16799443.74,3.138830423,0.104387708,-0.002338598,9.817866325,-0.001131755,-0.001460452,0.001862279
16799443.77,3.138852119,0.104820028,-0.041394915,9.798603058,0.000833341,-0.001086727,-0.000623451
16799443.78,3.138830423,0.083226107,0.058810871,9.93795681,-0.000726482,-0.002499013,-0.001821986
16799443.81,3.138830423,0.106849357,-0.000174391,9.855196953,0.001928169,-0.003077697,5.55E-05
16799443.93,3.138830423,0.156139985,-0.039672531,9.787554741,0.000648244,-0.004940313,-0.000505686
16799443.94,3.138852119,0.113057934,0.012307685,9.777728081,-0.000823481,-0.002288213,0.000678577
16799443.94,3.138852119,0.131134719,0.000415977,9.909422874,-0.001375611,-0.004027802,-0.000627157
16799443.94,3.138830423,-0.510683835,1.91585803,10.20285034,0.001776157,-0.003517392,0.000511544
16799443.94,3.138852119,-0.075245187,0.11887785,9.324271202,-0.002009484,-0.003420337,0.001893819
16799443.98,3.138852119,0.082193933,0.058360536,9.865916252,-0.000480806,-0.004667757,0.000946158
16799444.01,3.138830423,0.122152671,0.009309119,9.749464035,-0.000204933,-0.004227268,-0.000237679
16799444.03,3.138830423,0.122230373,0.010459547,9.797733307,-0.000418874,-0.00308676,-0.000827161
16799444.03,3.138830423,0.104092553,-0.009021677,9.806655884,-0.001880175,-0.004323467,-0.000532143
16799444.05,3.138852119,0.11519143,0.007767699,9.800744057,-1.43E-06,-0.003269028,0.000374994
16799444.08,3.138852119,0.145357668,0.019772086,9.809697151,-0.001240935,-0.003040045,0.001570622
16799444.12,3.138830423,0.114426464,-0.020766646,9.776972771,0.000465829,-0.003651643,6.93E-05
16799444.23,3.138830423,0.126902714,-0.000639218,9.820168495,-0.001010458,-0.004373396,0.001434942
16799444.23,3.138852119,0.123543255,0.015717875,9.785178185,-0.002050095,-0.005177663,-0.002351289
16799444.23,3.138830423,0.142757133,-0.079512097,9.940789223,-0.000154473,-0.004850438,0.000449926
16799444.24,3.138830423,0.456290871,0.319715649,9.545592308,0.001778608,-0.005388444,0.000379682
16799444.26,3.138852119,0.256606579,-0.159719557,9.510900497,-0.000476594,-0.003485595,0.000914819
16799444.26,3.138830423,0.123190239,-0.037851825,9.814048767,2.48E-05,-0.003787625,0.001228562
16799444.28,3.138830423,0.144050732,0.022637436,9.851658821,-0.000410243,-0.004739555,0.000152694
16799444.33,3.138852119,0.131152511,-0.038844999,9.752031326,-0.00036231,-0.005861328,0.000158341
16799444.35,3.138852119,0.097060286,0.070510976,9.874855995,-0.000837824,-0.00293967,-0.001279715
16799444.37,3.138852119,0.136399835,-0.050425164,9.894082069,-0.000192486,-0.000404974,0.000216167
16799444.37,3.138830423,0.113325283,-0.000115971,9.829732895,0.001723413,-0.002568583,0.000876744
16799444.4,3.138830423,0.136584669,-0.038177341,9.891530037,-0.001493045,1.20E-05,-0.001691718
16799444.42,3.138830423,0.125193641,0.042447675,9.752539635,6.83E-05,8.78E-05,0.000324269
16799444.53,3.138830423,0.14163354,0.004867595,9.819656372,0.000381554,-0.001123938,0.000505396
16799444.54,3.138830423,0.105905332,0.000224698,9.944168091,-0.000782126,-0.000920462,-0.001209393
16799444.54,3.138852119,-0.176106781,0.640721679,9.713576317,0.00061107,0.000610809,-0.00125345
16799444.56,3.138852119,0.202382714,0.118857719,9.617247581,7.06E-05,0.000739864,0.002399446
16799444.58,3.138852119,0.104877479,0.019936329,9.765285492,-0.000952571,0.000777027,0.000168958
16799444.58,3.138852119,0.131733835,0.00909224,9.726024628,9.01E-05,0.000177446,-0.000502641
16799444.61,3.138852119,0.135080233,0.022392102,9.811542511,-0.000398252,0.000993937,-0.000108575
16799444.66,3.138852119,0.135392651,-0.009647984,9.84135437,0.000271742,-0.000838975,-0.000738647
16799444.66,3.138874054,0.155020252,-0.019512409,9.809123039,-0.000747738,-0.000384287,0.001303349
16799444.68,3.138852119,0.163237303,-0.018470429,9.763585091,-0.0001503,0.000501138,0.000796567
16799444.7,3.138852119,0.15431428,-0.020235412,9.791823387,0.00081371,-0.000143785,-0.001240228
16799444.84,3.138874054,0.134686232,-0.000258819,9.878699303,0.000543312,0.002209095,0.000267551
16799444.84,3.138874054,0.142258063,0.011034793,9.77520752,-0.001329314,-0.000815945,-0.0014181
16799444.86,3.138874054,0.14383176,-0.001216945,9.887145996,0.00044073,0.000520675,-0.000177203
16799444.86,3.138874054,-0.173168406,-0.001569258,9.957499504,-0.000429125,-0.000511347,0.001993541
16799444.86,3.138874054,0.217768893,0.121132083,9.366257668,0.000113357,-0.00012092,0.000440773
16799444.9,3.138874054,0.164095744,-0.019397207,9.838123322,-0.000292882,0.001345742,-0.00082616
16799444.9,3.138874054,0.164004385,-0.020813331,9.74124527,-7.65E-05,-0.001713049,-0.001327298
16799444.95,3.138874054,0.154369816,-0.01926793,9.780955315,-0.000658294,0.000227354,0.001644108
16799444.95,3.138874054,0.147669166,-0.000211804,9.931256294,0.001074067,0.000647358,0.001624424
16799444.99,3.138874054,0.133764103,-0.001817928,9.818112373,0.000508137,9.63E-05,-0.000570371
16799444.99,3.138874054,0.143558174,-0.02071273,9.770514488,-0.001966926,0.000452324,0.000459812
16799445.04,3.138874054,0.155277088,0.009753881,9.80995369,0.002004165,0.000226704,0.001856853
16799445.16,3.138874054,0.164391115,0.030431906,9.781811714,0.000836784,0.00033408,0.000217917
16799445.16,3.138874054,0.13654986,-0.00326448,9.79921627,-0.001119277,-0.000288418,0.001286876
16799445.17,3.138874054,0.15641509,-0.019229058,9.858580589,-0.000651368,-0.000216353,-0.000156032
16799445.17,3.138874054,0.144616023,0.080117069,9.697977066,0.00059733,-2.32E-05,-0.000632635
16799445.2,3.138874054,0.165904075,-0.059567232,9.856013298,-0.000785916,0.001311553,-0.000492641
16799445.22,3.138874054,0.175380692,-0.039643757,9.678143501,1.03E-05,0.000235819,-0.001158327
16799445.22,3.138874054,0.15050973,0.008467502,9.881277084,-0.001199838,0.001073225,-0.000807656
16799445.25,3.138874054,0.163275316,-0.020313229,9.830353737,-0.00063188,0.000283549,0.000938008
16799445.3,3.138874054,0.123371996,0.021659901,9.752586365,-0.001985884,-0.00153433,0.001329748
16799445.41,3.138874054,0.143926248,0.014498346,9.804310799,-0.000652716,0.002652506,0.000249967
16799445.41,3.138874054,0.149229705,-0.015056403,9.796670914,-4.58E-05,9.41E-05,0.001077453
16799445.42,3.138874054,0.166447774,0.000729745,9.858147621,0.001215416,0.000583987,0.00033417
16799445.43,3.138874054,-0.09548077,0.079681613,9.77616024,0.000281976,-0.001292016,0.00214862
16799445.43,3.138874054,0.204872444,-0.15935488,9.779841423,5.91E-05,-0.000354286,0.000724687
16799445.45,3.138874054,0.135677069,0.040110435,9.887656212,-4.91E-05,0.000232559,0.000436002
16799445.47,3.138874054,0.173253626,-0.060991883,9.769342422,-0.002097138,0.003199975,0.001269126
16799445.49,3.138874054,0.142634004,0.038051967,9.775595665,7.60E-05,-0.001322505,-0.000509019
16799445.51,3.138874054,0.143804073,0.000776538,9.693881989,0.000879262,-0.000924769,-0.000779264
16799445.53,3.138874054,0.157068983,-0.039509814,9.96706295,-0.001813552,-0.001115022,0.000843139
16799445.55,3.138874054,0.124263145,0.000866395,9.767594337,0.002139237,-0.000253328,0.001118392
16799445.58,3.138874054,0.165590182,-0.000358145,9.829515457,-0.000157741,-0.000357393,0.000195783
16799445.6,3.138874054,0.174341962,-0.000124755,9.80457592,-0.00256146,-0.001133415,0.000785997
16799445.73,3.138874054,0.125536278,0.018390488,9.800109863,4.40E-05,-0.000614366,-0.001143835
16799445.73,3.138874054,0.145723149,0.007209972,9.77570343,0.002198457,-0.001143122,-0.0006365
16799445.74,3.138874054,0.144318685,0.000352364,9.882375717,-0.001539261,-0.001220446,-0.000770416
16799445.74,3.138874054,0.084192432,0.119365379,9.758778572,-0.000326135,-0.000109017,0.001682907
16799445.75,3.138874054,0.166318461,-0.120771758,9.870080948,-5.65E-05,7.59E-05,-0.000350333
16799445.77,3.138874054,0.091953039,0.100177787,9.753398895,-0.000716835,-0.000394782,0.000240871
16799445.79,3.138874054,0.148350477,0.009656062,9.758575439,0.001986595,0.000200754,-0.001095202
16799445.82,3.138874054,0.143006802,-0.040606331,9.719989777,0.000400627,-0.001113963,0.000542046
16799445.87,3.138874054,0.161684498,-0.009971252,9.883708954,0.000768341,-0.00069794,0.000247043
16799445.89,3.138874054,0.154258505,-0.040544912,9.818870544,0.001641167,-4.08E-05,0.000137822
16799445.91,3.138874054,0.123905562,0.020720672,9.746305466,-0.000679754,-0.001803357,-0.000264999
16799445.91,3.138874054,0.156496301,-0.020698303,9.888526917,0.000423127,-0.000261948,-0.000784205
16799446.05,3.138874054,0.139954492,0.008752032,9.756277084,-3.11E-05,-0.001172663,-3.54E-06
16799446.06,3.138874054,0.143203884,0.017135791,9.810712814,0.000265473,0.002022346,-0.001029473
16799446.06,3.138874054,0.139642447,0.119828463,9.608578682,-0.002706106,-0.000264072,-0.00103681
16799446.08,3.138874054,0.122187704,0.079015046,9.746444702,0.000288259,-0.001001226,-0.001231387
16799446.09,3.138874054,0.132072479,-0.008635369,9.736052513,0.00187282,-0.001512669,0.000916961
16799446.12,3.138874054,0.146598205,-0.012202126,9.880505562,-0.000487256,-0.000253116,-0.001641032
16799446.14,3.138874054,0.145299643,0.02111873,9.787160873,0.000665801,8.76E-05,-0.001952807
16799446.17,3.138874054,0.153789565,-0.020729613,9.748125076,0.001742558,0.00046764,0.00012393
16799446.19,3.138874054,0.166347951,-0.009384894,9.849719048,0.001704632,-0.001110907,-0.000589472
16799446.21,3.138874054,0.149733737,-0.011618795,9.794768333,-0.001892071,-0.000539856,-0.00176977
16799446.35,3.138874054,0.133992866,0.019545401,9.804932594,-8.15E-05,-0.001650685,-0.000406446
16799446.36,3.138874054,0.147672758,-0.015650686,9.810612679,-0.002149347,-0.000948081,0.000209291
16799446.36,3.138874054,0.102998085,-0.158710092,9.679127693,0.00158038,-0.001120743,0.001479433
16799446.37,3.138874054,0.20025523,-0.040214259,9.587399483,-0.000509868,-0.000631326,-0.000539289
16799446.39,3.138874054,0.123464599,0.019766042,9.798587799,-0.001346257,0.002038353,3.47E-05
16799446.42,3.138874054,0.154802158,-0.020179346,9.884674072,-0.000125021,0.001218152,0.000493989
16799446.44,3.138874054,0.161020979,-0.018137066,9.732619286,-0.000902417,-0.000867724,-0.001432905
16799446.49,3.138874054,0.149991825,0.010656951,9.82213974,-0.000413352,-0.000614474,-0.000816219
16799446.49,3.138874054,0.154275998,-0.031027881,9.823152542,-0.000696193,0.000179431,-5.01E-05
16799446.51,3.138874054,0.143146247,-0.001181765,9.716324806,0.000715823,0.0014084,0.000353506
16799446.64,3.138874054,0.157204926,-0.018371511,9.947297096,-0.000107664,-0.000713708,-0.001780275
16799446.65,3.138874054,0.155107126,-0.019392451,9.870769501,0.001690682,-0.000330918,-0.000186484
16799446.65,3.138874054,0.202058762,-0.079571478,9.649358749,7.32E-05,-0.001013389,0.000655584
16799446.67,3.138874054,0.121856317,0.019408362,9.797748566,-0.00035268,-0.000748963,0.000229017
16799446.68,3.138874054,0.175673187,-0.020034755,9.88484478,-0.003054544,0.001094352,0.000730465
16799446.71,3.138874054,0.113573067,0.041155033,9.80017662,-0.000316882,-0.000779995,0.000824057
16799446.73,3.138874054,0.112479486,-0.001976768,9.747933388,-0.000453936,0.001072416,0.000127078
16799446.75,3.138874054,0.147296369,0.049189501,9.756934166,-0.000344347,0.000417163,-0.001938488
16799446.78,3.138874054,0.154688418,-0.040549263,9.876857758,-0.001686648,-0.000834878,-0.0001721
16799446.8,3.138874054,0.115029626,0.058164213,9.843369484,-0.000617913,0.002041759,0.000204373
16799446.93,3.138874054,0.1313449,-0.009294345,9.725203514,0.000392883,0.002059731,0.000247878
16799446.93,3.138874054,0.150025293,-0.004100446,9.813622475,-0.000770504,0.001272907,0.00148436
16799446.93,3.138874054,0.059386976,0.478921741,9.510921478,0.000955512,0.000162208,-0.000342217
16799446.94,3.138874054,0.102230132,-0.001144393,9.674777985,0.000280864,0.00068877,0.000778546
16799446.95,3.138874054,0.11518465,0.000454991,9.841791153,0.001594524,0.000288585,0.000466652
16799446.98,3.138874054,0.124994285,0.040672626,9.785150528,0.002829546,0.000951496,0.000598417
16799447.03,3.138874054,0.129461691,-0.000559793,9.750275612,0.000453562,-4.06E-05,-0.000125836
16799447.04,3.138874054,0.153633103,-0.019389957,9.809581757,-0.000272454,9.21E-05,0.000609582
16799447.06,3.138874054,0.155791983,-0.058295518,9.912753105,-0.000666926,0.000141397,4.92E-05
16799447.06,3.138874054,0.165178373,0.040948972,9.77288723,-0.001152982,0.000348214,0.002226716
16799447.09,3.138874054,0.155120671,-0.019123491,9.821658134,-0.001059635,-0.000598052,-0.001455605
16799447.11,3.138874054,0.155473128,-0.000111363,9.79827404,-0.000516809,-0.001401004,0.000569816
16799447.23,3.138874054,0.17280142,-0.008841464,9.767243385,-0.000681646,-0.000976611,-0.00124188
16799447.24,3.138874054,0.146384194,-0.004646811,9.803687096,0.000323044,0.001103033,-0.001434603
16799447.24,3.138874054,0.219199151,-0.318571627,9.411584854,0.001830176,0.000658617,-0.000859886
16799447.25,3.138874054,0.144879445,0.078137323,9.770105362,0.001898688,0.000479781,-0.000707059
16799447.27,3.138874054,0.124836758,0.020049602,9.882699966,-0.000487205,0.000418633,0.001195438
16799447.29,3.138874054,0.163745284,-0.018226163,9.768405914,-0.000108274,0.001515364,-0.00025276
16799447.31,3.138874054,0.122964285,0.039099984,9.783096313,4.84E-05,-1.44E-05,-0.001310035
16799447.33,3.138874054,0.154847085,-0.000262342,9.799589157,-0.000539309,-0.001343083,-0.000292463
16799447.35,3.138874054,0.144050837,-0.019295143,9.847900391,-0.000953644,0.000102526,0.001591287
16799447.37,3.138874054,0.134168088,0.001656041,9.761853218,-0.000602301,-0.000647777,-0.001644828
16799447.4,3.138874054,0.132237986,-0.010074733,9.815420151,3.47E-05,-0.000699627,-0.001380019
16799447.42,3.138874054,0.144910812,0.000151698,9.823120117,-0.000677475,0.00061961,0.000480157
16799447.52,3.138874054,0.145047396,-0.01169361,9.782191277,-0.000275001,0.00030318,0.00059318
16799447.53,3.138874054,0.125693604,0.03902629,9.9254179,-0.000911862,0.000883009,0.000628437
16799447.53,3.138874054,0.300606191,-0.31972298,9.468702316,0.000264449,0.002253599,-0.000675731
16799447.53,3.138874054,0.222070232,-0.119245067,9.63449955,0.000915384,0.000520344,0.000795177
16799447.55,3.138874054,0.142785504,0.039632674,9.727582932,-0.000520648,0.000802513,-0.001514202
16799447.59,3.138874054,0.15548183,-0.060044438,9.95091629,-0.000840454,-0.001728529,-0.000860001
16799447.62,3.138874054,0.154422596,-0.022136461,9.789691925,-0.000222264,0.001301075,-0.00241605
16799447.64,3.138874054,0.135063499,-0.000925268,9.811473846,6.84E-05,0.000855773,-0.000839065
16799447.66,3.138874054,0.143853143,-0.000662023,9.771369934,0.000734363,-8.13E-05,0.000365379
16799447.66,3.138874054,0.155365035,0.000290489,9.80166626,-0.001760359,-0.000575651,0.001059063
16799447.69,3.138874054,0.154980734,-0.019250536,9.822414398,-0.000279606,-0.000703889,0.000614773
16799447.7,3.138874054,0.114577278,-0.020857707,9.803964615,0.001785567,0.000747859,-0.000594947
16799447.83,3.138874054,0.154084444,0.00055509,9.795000076,0.000424756,-0.001414746,0.001431606
16799447.84,3.138874054,0.150376663,-0.004419055,9.784087181,-0.001914532,-0.000581056,0.000516725
16799447.84,3.138874054,0.057355639,0.000384221,9.257122993,0.001011772,-0.001993711,0.00079792
16799447.84,3.138874054,0.182770699,0.061217196,9.677755356,0.001774558,3.17E-05,0.001343814
16799447.86,3.138874054,0.146444395,-0.000319589,9.85935688,-0.000590374,0.001438173,2.57E-05
16799447.88,3.138874054,0.146028027,0.02011114,9.872860909,0.000841196,-2.99E-05,0.000411678
16799447.9,3.138874054,0.143485367,0.010615905,9.792228699,-0.000819912,0.001451625,-0.000128605
16799447.93,3.138874054,0.143973306,-0.018967956,9.809352875,0.000216,0.001248908,-0.001888135
16799447.95,3.138874054,0.143753052,0.039743513,9.784044266,-0.002189863,0.000484822,-0.001127831
16799447.97,3.138874054,0.164249212,-0.038855288,9.812716484,-0.001046049,-0.001651253,-0.001909845
16799447.99,3.138874054,0.133139059,0.041167133,9.788537979,0.001322175,0.001879355,0.001271928
16799448.01,3.138874054,0.168775827,-0.031386252,9.786775589,-0.001068938,0.000113812,-0.001812453
16799448.04,3.138874054,0.115940444,0.040197857,9.852216721,0.001827917,-0.00047503,0.000890006
16799448.15,3.138874054,0.146840572,-0.005048318,9.775013924,0.001931235,0.001110525,-0.000300602
16799448.15,3.138874054,0.134087324,-0.020606603,9.905157089,-0.000137686,0.000258383,0.001779725
16799448.15,3.138874054,-0.022888772,0.080506608,9.40519619,-0.002102649,0.000629228,-0.000242992
16799448.16,3.138874054,0.185206801,-0.120300859,9.809374809,-0.001984532,-0.002057982,0.000877241
16799448.18,3.138874054,0.145216271,0.040124342,9.863061905,0.000650493,-0.000776518,0.000496168
16799448.2,3.138874054,0.133792296,-0.000457115,9.818224907,0.000782636,-0.001215977,-0.001331576
16799448.22,3.138874054,0.134661108,0.021387152,9.763139725,7.00E-05,0.000383154,-0.001210915
16799448.24,3.138874054,0.164202705,-0.040574916,9.811975479,0.000303008,-0.00025555,0.000222959
16799448.26,3.138874054,0.135300472,0.000402886,9.800670624,0.000976666,0.00224617,-0.000612571
16799448.28,3.138874054,0.163125172,0.000911472,9.800384521,-0.000297816,9.16E-05,0.000367568
16799448.31,3.138874054,0.114213884,0.039326418,9.803647041,-0.000447158,-0.000485461,-0.001184791
16799448.43,3.138874054,0.156119317,-0.019327961,9.818468094,-0.000143217,0.000358401,0.000220298
16799448.44,3.138874054,0.139795497,0.030266287,9.784326553,-0.000723781,0.000455333,0.000196277
16799448.44,3.138874054,0.218550846,0.002420375,9.29839325,-0.001284594,0.000464415,-0.001162691
16799448.45,3.138874054,0.167251557,0.060616758,9.925866127,-0.000217389,0.000239693,-0.001867639
16799448.47,3.138874054,0.133601159,-0.029141791,9.744702339,-0.00104879,-0.002078405,0.001275301
16799448.49,3.138874054,0.185701877,-0.041180093,9.868221283,-4.98E-05,0.000282851,-0.001698034
16799448.51,3.138874054,0.14667578,-0.04860599,9.682044029,-0.000969537,0.000161379,0.000557629
16799448.53,3.138874054,0.140092805,0.010149025,9.911535263,3.88E-05,0.000180166,0.000630639
16799448.56,3.138874054,0.145746693,0.020194184,9.725347519,-0.000832294,0.002410664,0.000549895
16799448.57,3.138874054,0.114913866,0.078576811,9.864134789,-0.001342801,-0.000681137,-0.001236017
16799448.6,3.138874054,0.145415992,-0.041175503,9.81029892,0.000443279,0.000637276,-0.000263112
16799448.73,3.138874054,0.144765526,-0.00216215,9.796834946,0.000899667,0.000822177,-0.000917173
16799448.73,3.138874054,0.145014495,0.019532254,9.837687492,0.000405702,-0.001221722,-0.000671501
16799448.73,3.138874054,0.165019467,-0.038632736,9.82152462,0.000600306,-0.000435056,-0.000128556
16799448.76,3.138874054,0.146963745,0.040191945,9.892569542,-0.000525352,0.000890969,-0.001166164
16799448.77,3.138874054,0.114553578,0.06100776,9.767566681,0.001510718,8.01E-05,-7.49E-05
16799448.8,3.138874054,0.155360162,-0.079751804,9.775874138,-0.001129605,0.000891555,-0.000528557
16799448.82,3.138874054,0.143833339,0.019475415,9.787279129,-0.001387708,-0.001518184,0.002731185
16799448.84,3.138874054,0.135140881,-0.000705929,9.812608719,-0.000344827,0.000317877,3.16E-05
16799448.88,3.138874054,0.143259421,0.001501624,9.798978806,0.001523953,0.000322729,-0.001143892
16799448.88,3.138874054,0.139139429,0.039760962,9.791870117,-9.10E-05,-0.001425462,-0.000252849
16799448.91,3.138874054,0.153238818,-0.04079533,9.826275826,0.002323713,-0.002468332,0.001213792
16799449.03,3.138874054,0.131546721,0.060573496,9.787452698,-0.000963954,-0.000106981,-0.001424314
16799449.04,3.138874054,0.147647858,-0.013814158,9.790493011,-0.000139785,0.001317089,-0.001341339
16799449.04,3.138874054,0.378519684,-0.160325631,9.355154991,-0.001884104,0.001079327,0.000716809
16799449.04,3.138874054,0.163617477,-0.020021433,9.833935738,0.00146477,-0.001026785,0.000178902
16799449.07,3.138874054,0.164622471,-0.060817253,9.710113525,-0.000511146,-0.000871758,-0.0004701
16799449.11,3.138874054,0.145972997,-0.000880322,9.850954056,0.001530776,0.000698151,-0.000985687
16799449.13,3.138874054,0.127329841,0.069717981,9.809143066,-0.000283559,0.001307154,-0.000529462
16799449.15,3.138874054,0.129702404,-0.010387836,9.794455528,0.000323758,-8.61E-05,0.001872424
16799449.18,3.138874054,0.144788548,-0.009188874,9.811961174,0.000194861,-0.000277335,0.001484332
16799449.18,3.138874054,0.143198743,0.017812977,9.815958023,0.001700871,-0.002527415,0.001007892
16799449.22,3.138874054,0.153557599,0.000145661,9.773665428,0.000579883,0.000572703,0.000350885
16799449.33,3.138874054,0.142120019,-0.00056495,9.866616249,-0.000570426,-0.001229578,0.001035363
16799449.33,3.138874054,0.134489611,-0.000913119,9.874373436,0.001795983,0.001986753,-0.000442559
16799449.35,3.138874054,0.262740761,-0.159888953,9.661448479,-0.001145957,-0.001129957,-0.000605511
16799449.35,3.138874054,0.125537977,-0.039243147,9.817288399,-0.000571269,0.002014688,-0.000466563
16799449.36,3.138874054,0.134052262,0.020913431,9.860832214,0.000119618,0.001205946,0.000312231
16799449.41,3.138874054,0.143730089,-0.009554558,9.714491844,0.000804695,-0.000138091,-0.00035539
16799449.41,3.138874054,0.141390324,0.020426102,9.761520386,-0.000919168,-0.000380995,0.00014783
16799449.43,3.138874054,0.133764982,0.021793969,9.945361137,-0.000937939,-0.000194075,0.000503049
16799449.45,3.138874054,0.154602066,0.001883882,9.796274185,-0.000292008,-0.001499602,0.001226948
16799449.47,3.138874054,0.158491135,0.000126337,9.779062271,0.000393373,-0.000379842,-0.001600932
16799449.49,3.138874054,0.153830215,-0.061511192,9.82235527,-0.001068642,0.000387833,-0.000151423
16799449.52,3.138874054,0.152970955,0.019958202,9.78133297,0.001618247,3.47E-05,-0.000288936
16799449.64,3.138874054,0.151021078,-0.029781682,9.761908531,0.000196785,-0.000457781,0.001459344
16799449.65,3.138874054,0.139889911,0.011803745,9.813473701,0.000981782,-0.000117104,0.001560294
16799449.66,3.138874054,0.057121664,0.160196245,9.349545479,-0.00056734,-0.00070104,0.001026861
16799449.66,3.138874054,0.162472352,0.080599762,9.75690937,-0.000807463,-0.000309395,-0.000123212
16799449.7,3.138874054,0.14698346,-0.001253542,9.871530533,-0.001198072,0.000484992,0.002855434
16799449.7,3.138874054,0.155234009,-0.018965153,9.768404961,0.00069528,-0.000537582,0.000280512
16799449.72,3.138874054,0.134324744,0.040032655,9.795151711,0.001284925,-0.001784934,-0.000450299
16799449.76,3.138874054,0.13453272,-0.020770926,9.815201759,0.00189845,-0.000337472,0.000699872
16799449.76,3.138874054,0.144510791,0.060440574,9.786518097,-0.001632506,2.41E-05,-0.000867877
16799449.79,3.138874054,0.153917298,-0.010350347,9.772341728,-0.000565787,0.00035421,-0.00010741
16799449.81,3.138874054,0.160003111,-0.019506136,9.891793251,0.001327557,1.20E-05,-0.000778968
16799449.94,3.138874054,0.130126566,0.059432972,9.76072216,-0.001188889,-0.001036283,-0.000790791
16799449.94,3.138874054,0.143965289,-0.008909373,9.791998863,0.000456604,-8.28E-05,0.000491339
16799449.94,3.138874054,0.059612654,0.320425332,9.554427147,-6.20E-05,-0.001108703,0.000736854
16799449.95,3.138874054,0.091538422,0.24077785,9.581816673,-0.000162528,0.000581754,-0.000338566
16799449.97,3.138874054,0.163806364,-0.019271437,9.790667534,-0.000848067,-4.24E-05,0.00033636
16799449.99,3.138874054,0.141193941,0.019246504,9.910782814,0.000370616,0.000965069,-0.00028513
16799450.01,3.138874054,0.150787383,0.030487927,9.780065536,0.000709853,0.001187477,-0.000606297
16799450.03,3.138874054,0.130785391,0.001524197,9.828101158,0.00010867,0.001950379,0.001288159
16799450.05,3.138874054,0.143165976,-0.049285959,9.755070686,-0.001986056,-0.000891641,0.000871034
16799450.08,3.138874054,0.140656903,-0.019553494,9.838009834,0.001095277,0.001126354,0.00137793
16799450.1,3.138874054,0.134989426,0.020853022,9.791603088,-0.001626229,-0.000264191,-0.000892622
16799450.12,3.138874054,0.138324052,0.039315388,9.762669563,0.000870139,0.000346166,-0.001370245
16799450.23,3.138874054,0.145798653,-0.007985731,9.801598549,0.000824396,-0.001374469,-0.000389162
16799450.23,3.138874054,0.147205397,-0.040529851,9.934763908,-0.001387631,-0.001104121,0.000443128
16799450.24,3.138874054,0.178146079,0.000664324,9.210886955,0.000752866,-0.001397921,-0.001098287
16799450.24,3.138874054,0.135416597,-0.019356189,9.877570152,-0.000628942,-0.001155773,0.000438153
16799450.26,3.138874054,0.12302582,-0.021456156,9.721920013,0.000185707,0.000215098,-0.000282415
16799450.3,3.138874054,0.146829277,0.000303254,9.854586601,-0.000422843,0.001268135,-0.000284324
16799450.3,3.138874054,0.141989976,0.020559393,9.775845528,6.36E-05,0.00021028,-0.000263498
16799450.32,3.138874054,0.143092513,0.020897234,9.796384811,0.000757551,0.000392829,-0.000475801
16799450.35,3.138874054,0.12996152,-0.019432517,9.820728302,-6.16E-05,-0.000674008,0.000868734
16799450.37,3.138874054,0.144914776,-0.002078029,9.799259186,-0.001601704,-0.00186463,0.000651433
16799450.39,3.138874054,0.140059903,-0.02173055,9.812180519,0.001497775,0.000136784,0.001235895
16799450.41,3.138874054,0.137757793,0.060352296,9.787636757,2.06E-05,0.000239327,-0.000862595
16799450.54,3.138874054,0.140288025,-0.000786971,9.818937302,-9.73E-05,-0.000744841,-0.001012111
16799450.55,3.138874054,0.147355035,-0.013442028,9.786298752,-0.00013314,0.000333181,0.000512456
16799450.55,3.138874054,0.464841932,-0.4813824,9.718446732,-0.000361525,0.000655049,8.63E-05
16799450.57,3.138874054,0.128282055,-0.040660292,9.504408836,0.001005625,-0.000356646,-0.000812549
16799450.57,3.138874054,0.131727427,-0.020202322,9.907934189,-0.000385137,-7.04E-05,-0.001144465
16799450.6,3.138874054,0.164716646,0.001892251,9.83852005,-0.000548072,-0.001216402,-0.000800776
16799450.62,3.138874054,0.142509758,0.000517653,9.757673264,0.00049938,0.000114921,-0.000415553
16799450.64,3.138874054,0.140002966,-0.020633046,9.80989933,0.000829852,-0.000424348,-0.001165399
16799450.66,3.138874054,0.163814127,-0.000572681,9.793915749,-0.000658238,-0.000647116,-0.00110993
16799450.68,3.138874054,0.482383549,-0.650765896,10.55735111,-0.063474387,-0.025239281,0.001526952
16799450.71,3.138852119,0.123039119,0.40803811,9.929719925,-0.035064131,-0.014536669,-0.000767521
16799450.73,3.138830423,0.024810692,0.313649088,9.623189926,-0.021619046,-0.009501764,-0.001519862
16799450.84,3.138808966,-0.002302316,0.081787147,9.361631393,0.022655498,0.01054275,0.000845052
16799450.84,3.138830423,0.148530737,-1.28506279,9.642108917,0.016964188,0.0079361,-0.000254408
16799450.85,3.138808966,0.224907219,0.198554769,9.720996857,0.012766078,0.005047583,0.000408211
16799450.86,3.138830423,0.18718715,-0.020736821,9.945033073,0.009134616,0.003248925,-0.000767984
16799450.89,3.138808966,0.165205553,0.040016316,9.883330345,0.004501715,0.000616964,-0.001098974
16799450.91,3.138830423,0.634829104,0.809371233,10.98174858,0.054374527,-0.022546517,0.000972157
16799450.93,3.138874054,-0.047443055,-0.639570177,9.608390808,0.034458481,-0.012137714,0.000730588
16799450.95,3.138830423,0.037031949,-0.251959056,9.589474678,0.019819396,-0.008142586,-0.000471282
16799450.98,3.138852119,0.089578234,-0.000896206,9.659566879,0.010467569,-0.005012456,-0.000253822
16799451.02,3.138852119,0.121605963,0.072731465,9.698210716,0.006267852,-0.00299606,-0.00017829
16799451.13,3.138874054,-0.164028063,-0.392418683,8.940505981,-0.056188986,0.023389768,-0.0008451
16799451.14,3.138852119,0.208787099,0.300720841,9.848425865,-0.007706752,0.003295684,0.000644027
16799451.14,3.138874054,0.208283857,0.032028753,10.00295353,-0.006258321,0.002959061,0.000535201
16799451.15,3.138874054,0.106870696,0.160890415,9.941778183,-0.004784386,0.00163825,0.000476081
16799451.15,3.138852119,0.099229895,-0.399450094,9.376720428,-0.003739031,0.003048507,-0.00078489
16799451.16,3.138852119,0.161254883,-0.021208281,9.94066906,-0.003683376,0.001061197,-0.000782859
16799451.19,3.138874054,0.158133507,-0.052452277,9.871587753,0.000453815,0.00021961,0.000820217
16799451.21,3.138874054,0.148935482,-0.042471547,9.865361214,0.000676806,0.000619418,0.000974914
16799451.25,3.138874054,0.137424737,0.040476035,9.811552048,0.000177364,0.000883203,-0.000307076
16799451.25,3.138852119,0.137818456,0.018420564,9.780303955,0.001343416,0.000227782,0.000437546
16799451.3,3.138874054,0.153054491,-0.019624002,9.763040543,0.001008984,-0.000260232,-0.000885402
16799451.32,3.138852119,-0.224793941,-0.489212185,11.09712124,-0.046016824,0.0246215,-0.000357812
16799451.43,3.138874054,0.155620903,0.306489229,9.93935585,-0.027978806,0.016002098,-0.000955971
16799451.44,3.138852119,0.234449908,-0.128738552,9.433504105,0.027074005,-0.014552209,0.000198756
16799451.45,3.138830423,-0.020551719,-0.168597743,9.813233376,0.020382365,-0.012805823,-0.000266828
16799451.45,3.138852119,0.018667711,-0.045416579,10.18259525,0.015049433,-0.009533918,0.00084172
16799451.47,3.138852119,0.065733291,-0.06397555,10.05993938,0.00903494,-0.004650882,-0.001178336
16799451.49,3.138830423,0.090310171,0.019148698,9.899053574,0.004495445,-0.004822469,-2.25E-05
16799451.51,3.138852119,0.114666596,0.010090278,9.869063377,0.002033073,-0.002117122,-0.000493835
16799451.53,3.138852119,-0.31629014,0.593300939,11.357584,0.041100629,0.020223999,0.001177252
16799451.58,3.138830423,0.320795476,-0.441803038,9.322729111,0.022869747,0.011381192,-0.000447473
16799451.58,3.138852119,0.241490319,-0.128087685,9.592918396,0.010902545,0.005182734,-0.001192233
16799451.61,3.138852119,0.190018684,0.053575844,9.593889236,0.00437844,0.003617914,0.001411533
16799451.74,3.138852119,0.151974007,0.044407371,9.616624832,0.003331869,0.004536284,-0.001056743
16799451.75,3.138852119,0.064934731,0.102300674,10.11152458,-0.005169309,-0.000998225,-0.000795509
16799451.76,3.138874054,0.116180606,0.080502003,9.513591766,-0.005055685,0.001142912,0.000992273
16799451.76,3.138852119,0.114641339,0.001392688,10.01581383,-0.003492794,0.003001344,0.000944253
16799451.8,3.138852119,0.116154999,-0.030928683,9.843916893,-0.000789317,0.002596551,0.001824997
16799451.8,3.138852119,0.14047876,-0.022378538,9.867423058,-0.001133234,0.002083555,-0.000196694
16799451.82,3.138874054,0.133946359,-0.002076465,9.870594025,-0.000172018,0.002914352,0.00012245
16799451.87,3.138852119,0.143988281,-0.010664555,9.828611374,-0.000978055,0.003717738,0.001418306
16799451.87,3.138874054,0.143434659,0.009245948,9.790728569,0.000152574,0.004189198,-0.001728079
16799451.89,3.138874054,0.139862448,-6.38E-05,9.82901001,-6.64E-05,0.003884176,0.001280737
16799452.04,3.138874054,0.140347302,-0.001312174,9.824999809,0.000593588,0.003317598,0.001017424
16799452.04,3.138874054,0.136410654,-0.008598628,9.801621437,0.000933898,0.003326207,-0.002198048
16799452.05,3.138852119,0.12621434,0.048847616,9.889533043,6.45E-05,0.002886639,-0.000660674
16799452.05,3.138852119,0.133917704,-0.32022655,9.902355194,-0.000118202,0.004052107,0.000644937
16799452.07,3.138874054,0.127347365,-0.042705145,9.45852375,0.000826991,0.00328301,-0.001346714
16799452.07,3.138874054,0.126471087,0.000325219,9.805891991,0.001191628,0.004545718,-0.001292094
16799452.09,3.138874054,0.145147264,-0.029272323,9.771174431,-0.00094911,0.00457174,0.001802623
16799452.11,3.138874054,0.133505821,0.010301261,9.825047493,0.000186579,0.002439362,0.001907467
16799452.14,3.138852119,0.138384715,-0.029836703,9.78377533,-0.000313086,0.002182656,0.000555117
16799452.16,3.138830423,0.133361265,-0.010612155,9.806536674,-0.000922023,0.003296615,0.000293611
16799452.18,3.138830423,0.127646402,0.02001561,9.841079712,0.000513047,0.001870094,0.00079107
16799452.21,3.138830423,0.126178697,0.019328091,9.762269974,0.000662011,0.002010578,-0.000259962
16799452.23,3.138830423,0.132285774,0.019862426,9.795488358,-0.000619749,0.001777187,-0.002190186
16799452.34,3.138852119,0.14590247,-0.002967406,9.746618271,0.002695453,0.001722613,-0.001878344
16799452.35,3.138852119,0.144510984,0.001202566,9.891971588,0.000264342,0.000672981,-0.000797438
16799452.35,3.138852119,0.08023148,-0.000261779,9.458362579,-0.000508658,0.000389078,-0.00275103
16799452.36,3.138852119,0.194099441,-0.082599364,9.641531944,0.000342594,-0.000147582,-0.000318212
16799452.37,3.138830423,0.112723708,-0.019152693,9.879310608,0.000478385,0.000118041,0.000685534
16799452.4,3.138852119,0.129228354,0.030649429,9.755547523,-0.000161643,-0.000467045,-0.001653004
16799452.42,3.138830423,0.136368558,0.01834194,9.812892914,0.0008548,0.001416642,0.00154455
16799452.46,3.138852119,0.130760238,-0.018313143,9.795908928,-0.001120472,-0.001236108,-0.001120556
16799452.46,3.138830423,0.135998949,-0.030693512,9.790543556,0.000106989,0.000762832,-0.002091325
16799452.49,3.138830423,0.130862415,0.040487923,9.811510086,-2.39E-05,-0.001185531,0.001196102
16799452.51,3.138830423,0.127340168,0.000312409,9.758788109,-0.000814446,-7.68E-05,0.000368188
16799452.54,3.138830423,0.121338107,0.000900193,9.815583229,-0.000918472,-0.000540743,0.000698318
16799452.65,3.138830423,0.127445087,0.009548912,9.811929703,0.002981494,0.002596979,0.000807197
16799452.65,3.138852119,0.116243981,0.001209484,9.904074669,0.004951403,0.001571706,0.000357273
16799452.65,3.138852119,0.079060353,0.320437193,9.397836685,0.00328355,0.00166875,-0.000961301
16799452.65,3.138830423,0.121254236,0.001907783,9.608840942,0.003098984,0.002149207,0.000574321
16799452.67,3.138830423,0.13034381,-0.05569835,9.876563072,0.005529252,0.003690102,-0.000553167
16799452.69,3.138852119,0.118652008,0.024264019,9.745998383,0.004734134,0.001765603,-0.001457828
16799452.72,3.138830423,0.13232933,-0.035342105,9.655043602,0.003280399,0.003032464,-0.000317999
16799452.74,3.138852119,0.135033041,-0.053058527,9.950007439,0.000367369,0.003219858,-0.001036867
16799452.76,3.138852119,0.1302578,-0.044138748,9.719207764,0.001022431,0.003730644,-0.000372382
16799452.79,3.138808966,0.132826403,0.036988433,9.795139313,-0.000613673,0.004961365,0.001883955
16799452.81,3.138808966,0.137475684,-0.025731193,9.759066582,-0.00055147,0.005327569,-0.00074314
16799452.84,3.138808966,0.132101044,-0.004933101,9.843200684,0.000290699,0.005392713,0.00213676
16799452.95,3.138830423,0.122365803,0.024627954,9.777990341,-0.001257713,0.00563537,-0.000549816
16799452.95,3.138830423,0.229027227,0.00560906,9.338768005,-6.48E-05,0.00545376,-0.000512567
16799452.96,3.138787746,0.141969353,0.004207325,9.631686211,-0.000950978,0.003403166,0.000681471
16799452.98,3.138808966,0.107962273,0.04611088,9.88341713,0.000970528,0.00418464,8.60E-05
16799453.02,3.138808966,0.11551182,-0.045215573,9.787343979,0.000650696,0.004022946,-0.00037723
16799453.04,3.138808966,0.11745479,0.015670851,9.796827316,-0.000959609,0.005396866,-0.000659198
16799453.04,3.138808966,0.119907036,-0.035752196,9.834895134,0.002013853,0.005033727,0.001166037
16799453.07,3.138787746,0.105406456,0.015650542,9.748474121,-8.48E-05,0.003373521,0.001593087
16799453.11,3.138787746,0.113446042,0.033719763,9.836712837,0.001045306,0.003204078,-0.000373544
16799453.14,3.138787746,0.115726821,-0.024442507,9.820333481,0.000227498,0.004503713,-0.000322069
16799453.25,3.138808966,0.111024432,0.015574772,9.804317474,0.000420161,0.004063072,0.001243376
16799453.25,3.138766527,0.103668094,0.013567844,9.791258812,0.001796271,0.005013993,4.37E-06
16799453.26,3.138787746,0.10714794,0.005119804,9.82352829,0.001312784,0.002868019,0.001447839
16799453.26,3.138787746,0.101612709,0.087069124,9.886647224,0.002627505,0.002441225,0.000597584
16799453.28,3.138787746,0.11961174,-0.113444023,9.746170044,0.004112766,0.004128342,-0.000949357
16799453.29,3.138787746,0.113391683,0.066424444,9.729550362,0.004627368,0.001720354,0.001099645
16799453.31,3.138787746,0.112397484,-0.022845581,9.753705025,0.004739088,0.002268155,-0.001334026
16799453.34,3.138766527,0.123451121,-0.011465842,9.751113892,0.002268056,0.0005159,0.001430157
16799453.36,3.138766527,0.12009456,-0.021104541,9.776154518,-0.000698589,-6.60E-05,-0.00143979
16799453.38,3.138766527,0.114554703,-0.010823501,9.764237404,0.001097262,0.000104432,-0.001055955
16799453.4,3.138766527,0.108530976,0.033637479,9.75288105,-0.000767663,-0.001116533,0.002344425
16799453.55,3.138787746,0.115073577,0.008605214,9.877434731,-0.000295361,0.000437135,-0.000238399
16799453.57,3.138766527,0.106844693,0.018271787,9.818292618,0.000659239,-0.000206184,-0.000278567
16799453.57,3.138787746,0.089719437,0.088637963,9.814804077,-0.001450638,-0.001274502,-0.000839684
16799453.57,3.138787746,0.080957107,-0.012104036,9.815741539,0.000432224,-0.000682461,0.000190011
16799453.59,3.138787746,0.107345454,-0.02977439,9.934376717,-0.000528462,-0.001090198,-0.000659916
16799453.61,3.138787746,0.102932349,0.047517095,9.76739502,-0.001694566,-0.001928666,0.000106389
16799453.64,3.138766527,0.0987202,-4.29E-05,9.699958801,-0.001290165,-0.000615305,0.000980613
16799453.67,3.138766527,-0.106007323,0.020288648,9.887604713,0.00147951,-0.000232099,-0.001685927
16799453.69,3.138766527,-0.873658657,0.006688534,9.875286102,-0.000354254,0.001773602,0.002233173
16799453.74,3.138766527,-2.112216949,0.022684159,9.712096214,-0.000665809,0.003069757,0.000703268
16799453.74,3.138787746,-2.961129904,0.029718805,9.89456749,-0.000560768,0.001378786,0.000542274
16799453.85,3.138787746,-5.060337067,0.003492894,9.792813301,6.09E-05,0.004612549,0.000107642
16799453.86,3.138787746,-6.128443718,0.029797219,9.897961617,0.001858934,0.003900225,0.002204178
16799453.86,3.138766527,-7.826454163,-0.333146662,9.588874817,0.000567446,0.006583523,0.00213073
16799453.88,3.138766527,-8.06662941,0.067003086,9.565745354,-0.000351981,0.006322541,0.000409482
16799453.91,3.138808966,-7.179456711,0.029243322,9.865906715,-0.000927749,0.003495439,0.000263456
16799453.91,3.138808966,-7.473248959,0.018458625,9.8081007,0.001488782,0.004794741,0.000134236
16799453.95,3.138808966,-7.626995564,-0.032154836,9.797874451,-0.001445463,0.005637133,0.000189911
16799453.95,3.138808966,-7.86689043,0.0070018,9.771092415,-0.00340265,0.004501284,-0.000446548
16799453.97,3.138808966,-7.895673275,0.03524588,9.789251328,-0.000584767,0.00326627,-0.001347414
16799454,3.138808966,-7.920025826,0.016952962,9.802371025,-0.000246786,0.001642847,-0.000248371
16799454.13,3.138808966,-8.245200157,0.025479818,9.731936455,0.000914908,0.003834642,0.000445737
16799454.14,3.138787746,-8.038277626,0.002784729,9.806729317,-0.000347436,0.003081138,-0.000530141
16799454.14,3.138808966,-10.73933601,-0.020502266,9.18294239,0.00049106,0.00141451,2.87E-05
16799454.14,3.138787746,-8.436852455,0.005211672,9.66328907,2.47E-05,0.002725346,-0.001333821
16799454.16,3.138787746,-7.527332783,0.047787335,9.92014122,-0.001252542,0.000585413,0.001829109
16799454.19,3.138808966,-8.246311188,0.004323648,9.694484711,-0.000383414,0.000938325,0.001028072
16799454.21,3.138808966,-7.697624207,-0.02228282,9.84822464,-0.001219499,0.002249176,-8.06E-05
16799454.24,3.138808966,-7.565383434,0.047392193,9.841584206,0.000722404,8.56E-05,0.001601719
16799454.26,3.138787746,-7.974692345,0.028040089,9.720743179,-0.001462067,0.00143855,-0.001548477
16799454.29,3.138787746,-7.436377525,-0.002625279,9.819226265,0.000123691,-0.001027156,-0.000144754
16799454.31,3.138808966,-11.64669228,-0.013950228,9.794267654,0.000995819,0.003056235,-0.000174261
16799454.33,3.138787746,-10.69733906,0.049084403,9.820970535,8.00E-05,0.002365834,-0.000531965
16799454.44,3.138808966,-0.973918915,0.004974309,9.733509064,-0.000568605,-0.005998245,0.000665893
16799454.44,3.138787746,0.096438311,0.009509051,9.924132347,0.00033555,-0.006890998,0.002312136
16799454.46,3.138787746,0.100738108,-0.152183756,9.135900497,0.000494292,-0.00516819,0.001171537
16799454.46,3.138787746,0.088793389,-0.071307212,9.951176643,0.000355275,-0.006430901,-0.000587254
16799454.46,3.138787746,0.088793389,-0.071307212,9.951176643,0.000355275,-0.006430901,-0.000587254
16799454.47,3.138808966,0.090034202,-0.009895586,9.729546547,-0.000692776,-0.004622848,0.001232553
16799454.5,3.138787746,0.094727777,-0.031362321,9.865769386,-0.000317815,-0.005882019,-0.000110247
16799454.54,3.138787746,0.082233012,0.008395516,9.784070969,0.001053123,-0.00307612,-0.000867949
16799454.54,3.138808966,0.086528227,0.007844264,9.80091095,-0.000781028,-0.004362193,-0.001050269
16799454.56,3.138787746,0.084725708,0.008683212,9.821365356,-0.000335397,-0.004848269,-0.000491877
16799454.58,3.138787746,0.087649763,0.009395989,9.795947075,-0.000681468,-0.004697572,0.000503912
16799454.61,3.138808966,0.092621617,0.009611448,9.832548141,0.000743218,-0.002363697,0.00175811
16799454.74,3.138787746,0.089223787,0.008517405,9.720693588,0.001630023,-0.000761982,-0.001344404
16799454.74,3.138787746,0.084568173,0.049538642,9.898620605,0.000973286,0.001099737,-0.000216068
16799454.74,3.138808966,0.075661376,0.40891251,9.772829056,-0.000892823,-0.001066666,-0.00043433
16799454.76,3.138787746,0.087509021,-0.010294327,9.67579174,-0.001091989,-0.001459623,0.000456742
16799454.78,3.138808966,0.098020121,0.008009685,9.82744503,-0.001005845,-0.001533528,-0.000220082
16799454.8,3.138787746,0.092945464,0.029112753,9.782224655,0.000453498,-0.001611332,0.000895825
16799454.82,3.138808966,0.098246038,-0.002603979,9.791043282,-4.81E-07,8.69E-05,0.000735903
16799454.85,3.138808966,0.100021422,0.009770976,9.828648567,0.000211119,-0.000571169,-0.00018733
16799454.87,3.138787746,0.107236959,-0.031941276,9.801002502,-0.001387565,-0.000440124,0.000550618
16799454.89,3.138808966,0.096935898,0.028456042,9.809066772,-0.000137333,-0.000502693,-0.000425541
16799454.91,3.138787746,0.10472618,-0.020970646,9.803525925,0.000201561,-0.000300841,-4.82E-05
16799455.04,3.138787746,0.098998964,-0.001292218,9.785152435,0.00112797,0.000285095,0.001938133
16799455.05,3.138808966,0.10188628,0.004163803,9.80338192,-0.001669668,6.09E-05,-0.001370116
16799455.05,3.138808966,0.074711829,0.166669756,9.366429329,-0.001330621,-0.000319037,-0.000918703
16799455.06,3.138808966,0.078113295,0.127613187,9.829771996,-0.00207502,-0.000510907,-0.001391368
16799455.07,3.138787746,0.092732064,0.028832225,9.832637787,-0.000680837,0.001970937,0.001318694
16799455.09,3.138787746,0.097417533,0.00745111,9.781732559,7.42E-05,-0.000199613,0.000209468
16799455.12,3.138787746,0.098994069,0.009884886,9.756403923,-0.000549131,6.47E-05,-0.00062331
16799455.14,3.138808966,0.096262269,0.030496916,9.878297806,0.002503296,-0.000235687,-0.000933303
16799455.16,3.138808966,0.102497406,-0.031018514,9.782162666,0.000258494,0.001035867,-0.001719312
16799455.19,3.138787746,0.102450162,-0.011576862,9.77046299,-0.000561573,0.000807013,0.000142027
16799455.23,3.138787746,0.101435505,-0.001623771,9.825174332,0.000295178,-0.000457819,-0.001770503
16799455.23,3.138808966,0.104151025,-0.000526956,9.803588867,0.000466562,-0.000295239,0.000633373
16799455.35,3.138787746,0.099744029,0.0168755,9.793513298,-0.001600361,0.001542165,-0.001328023
16799455.35,3.138787746,0.101112679,0.00980201,9.930070877,-0.001159144,0.000478066,6.43E-05
16799455.36,3.138787746,0.05846063,-0.150774315,9.467889786,-0.001506773,-0.000288061,0.000162844
16799455.36,3.138787746,0.06761723,0.208114594,9.704421043,0.000279979,-0.001259521,0.001206579
16799455.38,3.138787746,0.098853745,0.010215114,9.828816414,-0.000169188,-0.000384028,0.001166809
16799455.42,3.138787746,0.097760893,0.008907169,9.776615143,0.000813582,0.000794341,-0.001623435
16799455.42,3.138787746,0.101538762,-0.001349734,9.773625374,-0.002300546,-0.000224738,0.001506909
16799455.45,3.138787746,0.099352904,0.010806647,9.763534546,0.000137963,0.000494564,-0.000664315
16799455.49,3.138787746,0.100723438,0.007386564,9.912517548,-0.000413927,0.00097293,0.000119805
16799455.51,3.138787746,0.092668414,0.030109841,9.805189133,-0.001630316,8.37E-05,8.07E-05
16799455.54,3.138787746,0.101400711,-0.001273929,9.804271698,0.000956121,-4.01E-05,0.00119851
16799455.54,3.138787746,0.100645736,0.00921623,9.778610229,0.000533607,0.001016758,0.000482808
16799455.64,3.138787746,0.098567255,0.005687551,9.794696808,-0.000338941,-0.001150512,0.001918299
16799455.67,3.138787746,0.099432893,0.009102494,9.827160835,-0.001853774,-0.000732176,0.002454759
16799455.67,3.138787746,0.097027861,0.000122499,9.763497353,-4.78E-05,-0.001229506,0.001309204
16799455.71,3.138787746,0.101948284,0.008328361,9.984718323,0.000658893,-0.001209589,0.001437197
16799455.73,3.138787746,0.099827379,0.029652631,9.748258591,-0.000801743,0.000843831,-0.000535883
16799455.75,3.138787746,0.097061217,-0.012755332,9.677053452,-1.93E-06,-7.85E-05,0.000821184
16799455.77,3.138787746,0.098350927,0.048249897,9.910470963,-0.001629027,-0.000409642,0.001157261
16799455.8,3.138787746,0.097265013,0.008616811,9.784719467,0.000339597,0.000530705,0.000640538
16799455.82,3.138787746,0.093330175,0.030013492,9.781814575,0.000357833,0.000494688,0.002093569
16799455.96,3.138787746,0.095675834,0.047783423,9.845286369,-0.000273339,0.001823328,-7.80E-05
16799455.97,3.138787746,0.100821108,0.019546138,9.826992989,0.000614428,0.000896684,0.000966048
16799456,3.138787746,0.102261715,-0.030276868,9.889247894,-0.001062058,-0.000147999,-0.002140306
16799456.01,3.138787746,0.103963546,0.008534618,9.835505486,-0.000881032,0.000267017,-0.000110078
16799456.01,3.138787746,0.099728487,0.008846171,9.783503532,-0.00017574,8.44E-05,0.001554319
16799456.04,3.138787746,0.098646626,0.018435059,9.711169243,-0.000381949,4.84E-05,0.000603899
16799456.06,3.138787746,0.101214461,-0.012502323,9.848719597,-0.001560454,-0.001660018,0.000288488
16799456.11,3.138787746,0.101319373,0.008941929,9.887459755,0.000103087,0.001252729,0.000387367
16799456.23,3.138787746,0.094468243,0.027922699,9.746150017,-0.000131809,1.12E-05,-0.001811467
16799456.24,3.138787746,0.103456363,0.029880172,9.87299633,-0.003125424,0.000140437,0.00042584
16799456.24,3.138787746,0.107828178,-0.030335838,9.60017395,-0.000186326,-0.000885242,-0.000349754
16799456.27,3.138787746,0.103838153,0.008774528,9.846822739,0.000233712,0.000718797,0.00013354
16799456.29,3.138787746,0.101879679,0.028093886,9.89031601,0.000233989,0.001262226,0.000349302
16799456.33,3.138787746,0.099021316,0.008850343,9.805223465,0.00125713,0.001617472,0.001882191
16799456.35,3.138787746,0.098225124,-0.012191595,9.784107208,0.001218327,0.001200351,-0.001141868
16799456.37,3.138787746,0.10779573,-0.001142073,9.801737785,0.000954894,-0.000868412,-0.001644738
16799456.4,3.138787746,0.098970398,-0.013241892,9.790208817,-0.000367327,0.000151535,-0.000526075
16799456.44,3.138787746,0.09898831,0.004773797,9.749779701,-0.000161498,0.001095443,0.000742348
16799456.55,3.138787746,0.100385219,0.018663075,9.861021042,-0.002328156,0.00063774,0.000832225
16799456.55,3.138787746,0.099778727,-0.010174706,9.85574913,8.66E-05,0.001347581,0.001464269
16799456.55,3.138787746,0.096899435,0.00774445,9.579693794,0.000166563,0.000699543,0.000643754
16799456.56,3.138787746,0.0861177,0.088153616,9.900277138,-0.001280046,0.00045827,0.000394382
16799456.6,3.138787746,0.102488823,0.030605277,9.809695244,0.000129582,-0.000952056,-0.0014646
16799456.6,3.138787746,0.098928832,0.019260392,9.761176109,0.000375569,0.001546787,-0.000544327
16799456.62,3.138787746,0.105757289,-0.008270197,9.809535027,-0.000794049,0.0003642,0.000500385
16799456.65,3.138787746,0.100058258,0.006795982,9.837917328,0.000176991,0.00042708,0.001082783
16799456.67,3.138787746,0.095419854,0.038684323,9.76541996,-0.000645302,1.66E-05,0.000841273
16799456.69,3.138787746,0.099649087,0.009540753,9.781737328,-4.99E-05,0.001009482,0.000686166
16799456.84,3.138787746,0.098363295,0.038954142,9.836668015,-0.001379426,-0.000507284,-0.000647462
16799456.84,3.138787746,0.103959017,0.007252952,9.832360268,-0.00047654,0.001534938,-0.000602732
16799456.84,3.138787746,0.113953717,-0.069438227,10.13911438,-0.000481734,0.00012518,-0.000207173
16799456.87,3.138787746,0.088298246,0.010158975,9.604457855,0.000759228,0.000335534,0.001199559
16799456.87,3.138787746,0.097157486,0.029368095,9.778442383,0.000264165,-0.000131398,0.001232301
16799456.89,3.138787746,0.105915211,0.009010163,9.850214958,-0.00090744,-0.000254406,0.002120011
16799456.92,3.138787746,0.104253083,0.007570436,9.770051956,0.001729768,-0.001405729,0.001388918
16799456.94,3.138787746,0.104955338,-0.050914716,9.833889008,-0.000206938,-6.36E-05,-0.000467334
16799456.96,3.138787746,0.108197153,-0.011626565,9.765262604,-0.00014123,8.80E-05,0.000485062
16799456.98,3.138787746,0.103780866,-0.01103482,9.801350594,0.001543983,0.000349108,-0.00041877
16799457.01,3.138787746,0.097759299,0.049742345,9.849374771,-0.001031533,0.000956021,3.21E-05
16799457.14,3.138787746,0.100675344,-0.011796606,9.783427238,-0.000699548,-0.001087247,-0.001080165
16799457.14,3.138787746,0.097396977,0.010797717,9.787344933,-0.00058089,-0.001580773,1.56E-05
16799457.15,3.138787746,0.103150256,-0.011029331,9.91878891,-0.003254604,-1.22E-05,-0.000274863
16799457.17,3.138787746,0.114140421,-0.112692632,9.61594677,8.37E-05,0.001171892,-0.000666516
16799457.18,3.138787746,0.110958241,-0.069333248,9.815217018,0.000824811,0.001274662,0.000361608
16799457.2,3.138787746,0.103377901,0.00936728,9.62170887,0.001410301,-0.001985058,-0.000251113
16799457.23,3.138787746,0.098121256,0.019932792,9.893627167,0.000508137,-0.000151066,0.000549981
16799457.25,3.138787746,0.098082729,0.009550979,9.780597687,-0.000305068,0.000409544,-0.000196596
16799457.28,3.138787746,0.100169897,0.008274515,9.904639244,-0.000741667,-0.000374927,7.52E-05
16799457.3,3.138787746,0.102544628,0.008141251,9.764484406,8.34E-05,0.001232126,-0.001818406
16799457.32,3.138787746,0.100924037,-0.001670928,9.738158226,0.001177999,-0.000474155,-0.000342667
16799457.44,3.138787746,0.100167803,0.008646785,9.882052422,-0.001354733,0.001830892,-0.000108916
16799457.44,3.138787746,0.100476056,0.011722214,9.776874542,-0.000898867,-1.08E-05,-0.000880567
16799457.46,3.138787746,0.101134926,0.01375319,9.846027374,-0.002399101,-0.000161473,0.001869677
16799457.49,3.138787746,0.096577786,-0.010491394,9.890633583,-0.000212163,-0.001025749,-0.000994397
16799457.49,3.138787746,0.088469386,0.048185568,9.668681145,-0.0001054,0.001796482,-0.001215384
16799457.53,3.138787746,0.095007569,0.049329828,9.902909279,0.000841047,-0.000274278,-0.000672642
16799457.53,3.138787746,0.102838226,-0.010659247,9.713078499,0.000105067,0.001146014,-0.001082916
16799457.58,3.138787746,0.095772065,0.039347019,9.819273949,0.000390567,0.000332016,-9.45E-05
16799457.58,3.138787746,0.100243054,-0.009916097,9.799089432,9.26E-05,0.001484707,0.000286484
16799457.61,3.138787746,0.111228377,-0.051345173,9.796955109,0.002395623,0.001188949,-0.00046215
16799457.61,3.138787746,0.101127155,0.009827395,9.862092972,0.001242404,0.000395548,0.001923551
16799457.74,3.138787746,0.102920018,0.008797716,9.779122353,0.000497231,-0.00063565,-3.79E-05
16799457.75,3.138787746,0.09695562,0.008403529,9.796845436,0.0008138,-0.001181591,-0.001434756
16799457.75,3.138787746,0.092804216,-0.152152792,10.06569672,-6.03E-05,-0.002310672,-0.000339152
16799457.77,3.138787746,0.102293663,0.01022421,9.494306564,-0.000584728,0.000484882,-0.000141956
16799457.78,3.138787746,0.105046056,0.009091647,9.830004692,-0.000168568,-2.02E-05,0.001570965
16799457.81,3.138787746,0.105684087,-0.030990072,9.898031235,-0.000871686,0.000244829,7.12E-05
16799457.83,3.138787746,0.113872051,-0.0305804,9.803855896,-0.000311747,0.000772584,-3.40E-05
16799457.85,3.138787746,0.099078976,-0.002351567,9.7733078,0.000238731,-0.000756874,-0.001650512
16799457.88,3.138787746,0.093504749,0.019530954,9.80615139,0.001209613,0.001259941,6.05E-05
16799457.9,3.138787746,0.098447636,0.003648858,9.735215187,-0.00025439,-7.24E-05,-0.001204936
16799457.94,3.138787746,0.10236302,0.009567773,10.01915932,-0.001577951,-0.00154484,-0.000366736
16799458.04,3.138787746,0.100588553,0.015012843,9.721515656,0.000517658,-0.000841924,-0.00175577
16799458.04,3.138787746,0.09998291,0.02939366,9.883378983,-0.001594265,0.000219159,-0.00021545
16799458.04,3.138787746,0.097041801,0.249883726,9.476021767,0.001641926,0.000919018,0.000337351
16799458.05,3.138787746,0.102421328,0.007331223,9.988677025,0.000156995,-0.001566766,0.001564214
16799458.07,3.138787746,0.099360026,0.029190728,9.66039753,0.000210739,0.000498633,4.64E-05
16799458.09,3.138787746,0.108442456,-0.011514625,9.878745079,0.000566658,-0.000135842,-0.001372895
16799458.12,3.138787746,0.100651532,0.019597068,9.793688774,0.00192303,0.00061604,0.001929684
16799458.14,3.138787746,0.095522285,0.018976092,9.792808533,-0.000494873,0.001724491,-9.83E-05
16799458.16,3.138787746,0.098616116,0.01751663,9.773316383,0.001143001,-0.000677368,-0.000680028
16799458.2,3.138787746,0.100284614,0.028891046,9.898256302,-0.000508871,2.93E-05,0.000516764
16799458.24,3.138787746,0.104085304,0.028268602,9.724000931,0.000308101,0.000193194,0.001694031
16799458.35,3.138787746,0.101622932,-0.012040283,9.800861359,-0.000751484,-0.000612655,5.36E-05
16799458.35,3.138787746,0.098530419,0.011526857,9.791225433,0.000364517,0.001701295,-0.000223825
16799458.36,3.138787746,0.100605838,-0.011333705,9.855548859,-0.000958333,-8.45E-05,0.000330419
16799458.36,3.138787746,0.079486325,0.009024133,9.870253563,-5.68E-05,0.000122585,-0.000664165
16799458.36,3.138787746,0.095367268,0.048835523,9.729463577,0.000884053,0.000196331,0.000970294
16799458.38,3.138787746,0.10570731,-0.029532518,9.82949543,8.13E-05,0.000929355,-0.0011972
16799458.41,3.138787746,0.099238642,0.008914185,9.784924507,-0.001167249,-0.001439563,0.001599079
16799458.43,3.138787746,0.097985484,0.01985288,9.826581001,0.00036485,-0.001360767,-0.000832053
16799458.48,3.138787746,0.101140402,-0.000405474,9.787167549,0.00056252,0.00069068,0.000509915
16799458.5,3.138787746,0.100764565,0.009435934,9.794682503,0.000764497,0.000850197,0.001220568
16799458.5,3.138787746,0.097926311,0.019526193,9.814446449,-0.000416374,-0.002069081,0.000555864
16799458.63,3.138787746,0.10281118,0.009287472,9.823000908,0.00113632,-0.000851519,-5.03E-05
16799458.63,3.138787746,0.100267559,0.012175759,9.786021233,0.001074607,0.000326058,0.000281286
16799458.64,3.138787746,0.092436969,0.086562149,9.927891731,0.001026983,-0.001021555,0.001862919
16799458.64,3.138787746,0.020063214,0.008999047,9.781430244,0.000902903,0.000292052,-0.001176263
16799458.64,3.138787746,0.044994835,0.047987059,9.405445099,-0.00032617,-0.000775863,0.000103329
16799458.66,3.138787746,0.10651578,-0.029128235,9.874434471,0.001793468,-0.001476123,0.000531013
16799458.68,3.138787746,0.097003639,0.029158302,9.780668259,0.00084747,0.000229395,6.30E-05
16799458.7,3.138787746,0.100282304,-0.010638032,9.818060875,0.002067317,0.001311908,-0.000152987
16799458.75,3.138787746,0.103553966,-0.011549523,9.791703224,-0.001024682,0.000218451,0.001485173
16799458.77,3.138787746,0.098902665,0.028013945,9.807044029,-0.001135167,0.001264086,0.002544101
16799458.79,3.138787746,0.103704564,-0.01341024,9.807656288,0.000493455,-0.001675142,-0.001743812
16799458.79,3.138787746,0.097766154,0.017190818,9.768590927,-0.000440711,0.001480354,0.000935738
16799458.84,3.138787746,0.102018856,-0.031425804,9.757884026,0.001027166,-0.001400084,0.000597171
16799458.84,3.138787746,0.100733317,-0.011091431,9.942734718,-0.000262727,-0.000215678,0.001728197
16799458.95,3.138787746,0.09843874,0.015289283,9.781666756,-0.001276991,-0.000746647,0.001275642
16799458.95,3.138787746,0.095048234,0.028754583,9.905766487,0.000414006,-0.000387778,-8.26E-05
16799458.95,3.138787746,0.262774944,-0.630445778,9.907765388,-0.000499959,0.000730675,0.00023279
16799458.97,3.138787746,0.132146254,-0.113232948,9.418581963,-0.000339552,-0.000723509,-0.000247542
16799458.99,3.138787746,0.103972092,0.009442467,9.780148506,-0.001152952,-0.000658624,-0.000367017
16799458.99,3.138787746,0.102879882,0.00879745,9.935249329,0.000113751,0.0009727,0.000117881
16799459.04,3.138787746,0.102640137,-0.009331677,9.7849226,-0.001728957,-0.001524843,0.000494095
16799459.04,3.138787746,0.093508616,0.027234631,9.793919563,-0.000627235,0.000286403,-0.000496527
16799459.06,3.138787746,0.102435842,0.009478712,9.801623344,0.001419948,-0.00116794,0.000165602
16799459.1,3.138787746,0.104798675,-0.011415371,9.80269146,0.000994472,-0.000743474,-0.000651657
16799459.1,3.138787746,0.096358113,0.02931249,9.771138191,-0.00157718,0.000387209,-0.00021011
16799459.13,3.138787746,0.100454859,0.009510373,9.829141617,-9.65E-05,-0.000913769,5.47E-05
16799459.24,3.138787746,0.098470867,0.001760401,9.792272568,0.000281674,-0.000978059,0.000216824
16799459.24,3.138787746,0.101653442,0.009309494,9.934958458,-0.000671921,0.000958093,0.000288433
16799459.24,3.138787746,0.095532678,0.007734362,9.648705482,0.000907433,0.000592829,0.000406382
16799459.26,3.138787746,0.091396101,0.04735294,9.417096138,0.000757494,5.00E-05,-0.000725222
16799459.29,3.138787746,0.094929695,0.02994181,9.879484177,-0.000294317,-0.000208135,0.001470501
16799459.31,3.138787746,0.102201529,-0.002164367,9.793614388,0.001206154,0.000126577,-0.000456599
16799459.33,3.138787746,0.103356406,0.008935578,9.820922852,-0.000968802,0.000850661,-0.000448816
16799459.36,3.138787746,0.099929877,0.020229578,9.766813278,0.001270782,0.000197543,-0.00011221
16799459.38,3.138787746,0.101158381,0.018856218,9.835161209,-0.000123961,-0.001374759,-0.000548241
16799459.38,3.138787746,0.101953194,-0.002061291,9.797351837,-0.000196823,0.000979479,1.60E-05
16799459.43,3.138787746,0.101039335,0.017034292,9.771612167,-0.000883347,-0.000270244,-0.000294987
16799459.43,3.138787746,0.099100165,0.009154974,9.892241478,9.21E-05,-0.000764127,-0.000310504
16799459.55,3.138787746,0.100981943,0.011428073,9.780497551,-0.000130175,-0.001089629,-0.00059102
16799459.55,3.138787746,0.089741379,0.008753763,9.91576767,0.000689587,2.47E-05,-0.000481597
16799459.55,3.138787746,0.057659511,0.010299206,9.553861618,-0.000453879,-0.000148458,-0.001472663
16799459.57,3.138787746,0.100609474,-0.031482495,9.508887291,-7.02E-05,0.000313734,-0.000325529
16799459.57,3.138787746,0.105550356,-0.01128647,9.854182243,-6.97E-05,-0.000127014,-0.000764467
16799459.6,3.138787746,0.095980883,0.008914461,9.770350456,-1.36E-05,0.001569961,-0.002190066
16799459.62,3.138787746,0.094558813,0.018409165,9.811454773,0.000664274,0.000749047,-0.001016044
16799459.67,3.138787746,0.097915947,0.007280816,9.811341286,0.000870471,0.00104899,6.98E-05
16799459.67,3.138787746,0.100076228,-0.012538937,9.83324337,0.001566769,0.000193926,0.000620212
16799459.7,3.138787746,0.101374127,-0.001717369,9.780768394,-0.002411793,-0.001094044,-0.001138128
16799459.72,3.138787746,0.101324953,-0.001697573,9.811995506,-0.000977422,-0.000735613,0.00111865
16799459.85,3.138787746,0.09924902,0.007151357,9.795737267,-9.97E-05,0.000165832,0.000474641
16799459.85,3.138787746,0.106250487,-0.032590263,9.924412727,0.00210875,-0.001205102,0.001397831
16799459.85,3.138787746,0.137867033,-0.151397094,9.40668869,-0.000964361,0.000209346,0.001067979
16799459.85,3.138787746,0.092086524,0.009388356,9.625760078,-0.000235641,0.000301212,-0.001308172
16799459.87,3.138787746,0.105917372,0.008995183,9.836792946,0.001287159,0.001250401,0.00117127
16799459.92,3.138787746,0.098138541,0.007234754,9.805011749,-2.77E-05,0.000444279,0.00039874
16799459.95,3.138787746,0.102476165,0.007382011,9.760148048,0.000580706,-0.001230925,0.000653323
16799459.95,3.138787746,0.09856236,-0.000923596,9.820841789,-0.001045641,0.000659031,-0.000130269
16799459.97,3.138787746,0.104781732,-0.012534153,9.787342072,0.000862612,2.79E-05,-0.002295912
16799460.02,3.138787746,0.096137702,0.029398285,9.84363842,-0.000496895,0.000825864,-0.000662815
16799460.02,3.138787746,0.095644243,0.02720819,9.798329353,9.99E-05,-0.001488672,-0.001314454
16799460.14,3.138787746,0.101263627,0.006953787,9.798154831,-0.00153505,-0.000357125,0.000485131
16799460.15,3.138787746,0.109486356,-0.033659317,9.916602135,0.001876524,0.000585195,0.000987608
16799460.15,3.138787746,0.102192268,-0.311301798,9.738492966,-0.000693879,0.000792694,-0.000540024
16799460.15,3.138787746,0.090207145,-0.071736932,9.357552528,-0.00118007,-0.000427562,0.000111762
16799460.17,3.138787746,0.098237693,0.019675799,9.894288063,0.000885709,-0.000323099,0.001428013
16799460.22,3.138787746,0.091110066,0.049038608,9.805702209,-0.000107098,0.001651977,0.001411944
16799460.25,3.138787746,0.097203575,0.04926458,9.764051437,0.001192106,0.000633224,0.000299678
16799460.25,3.138787746,0.102728471,0.010519387,9.838905334,-0.001390399,0.000128793,-0.001868436
16799460.3,3.138787746,0.099322051,-0.009621447,9.740227699,-0.000160896,0.000799965,-6.69E-05
16799460.3,3.138787746,0.097743899,-0.003036969,9.845803261,-0.000881035,-0.000549557,0.00226267
16799460.32,3.138787746,0.101069823,0.000290727,9.856671333,-0.000985275,-0.000878738,-0.000314779
16799460.44,3.138787746,0.099815689,0.010458664,9.777324677,0.001204454,0.001292491,-0.000612146
16799460.44,3.138787746,0.103841573,0.007742437,9.920032501,-0.001186529,0.000935826,0.000665599
16799460.45,3.138787746,0.017782174,0.009764441,9.631320953,0.002018074,-0.001769911,0.00068613
16799460.45,3.138787746,0.064600907,0.167705312,9.451171875,-0.000528319,-0.000633509,0.000633536
16799460.49,3.138787746,0.095380709,0.029275082,9.881626129,0.000289224,-0.000180637,-0.000700192
16799460.51,3.138787746,0.099574916,0.006953182,9.76531601,0.000176371,0.002143682,0.00048577
16799460.54,3.138787746,0.099076286,0.008726155,9.834587097,0.00055152,-0.001691634,-0.001279873
16799460.56,3.138787746,0.100441709,0.010467775,9.795489311,-0.000233653,0.001275688,0.00067854
16799460.58,3.138787746,0.096740313,0.008425755,9.797627449,-0.000164839,0.000789553,0.000354734
16799460.61,3.138787746,0.10536246,-0.022453157,9.787815094,0.000615262,0.000739173,-0.000705783
16799460.61,3.138787746,0.108511001,-0.031836629,9.8227005,-0.001199152,-0.000700287,0.000334035
16799460.74,3.138787746,0.09772861,0.007412527,9.850320816,-0.000717139,-0.001138821,-0.000454899
16799460.74,3.138787746,0.097565681,0.015181718,9.775202751,-0.000353265,-0.000225283,-0.000735889
16799460.74,3.138787746,0.095366813,0.007426077,9.913079262,-0.001312224,-0.000467003,0.001849475
16799460.74,3.138787746,0.099802785,-0.631676555,9.726405144,0.000459521,-0.000786916,0.000254687
16799460.75,3.138787746,0.138198838,-0.111443944,9.482995033,-0.002242324,0.00016013,0.001916322
16799460.76,3.138787746,0.101493247,0.013865639,9.796598434,0.000877366,-0.00110613,-0.001520174
16799460.85,3.138787746,0.098883331,0.00815471,9.860246658,0.000234529,0.000407703,-8.70E-05
16799460.87,3.138787746,0.094840832,0.018669793,9.749187469,-0.001628863,0.000708168,0.000298009
16799460.92,3.138787746,0.10718713,-0.031052107,9.840830803,0.001197,0.000549804,0.000146534
16799460.94,3.138787746,0.096916951,0.037078969,9.759746552,0.001416343,-0.000293408,0.000906597
16799461.05,3.138787746,0.102666087,-0.000909434,9.79618454,-0.000132515,-0.00027721,-0.000307465
16799461.05,3.138787746,0.101600677,-0.002076308,9.787110329,0.001039096,0.000859414,-0.001423907
16799461.08,3.138787746,0.100766219,0.00972522,9.832622528,0.000452761,0.001211694,0.000598809
16799461.08,3.138787746,0.123128541,0.090378873,10.10146713,0.000539545,-0.000490428,0.000761089
16799461.09,3.138787746,0.138241872,-0.151596561,9.673017502,0.000158207,-0.000313451,-0.000501834
16799461.11,3.138787746,0.094229482,0.026520427,9.655896187,0.003162045,0.000467792,-5.84E-05
16799461.14,3.138787746,0.096822269,0.01015496,9.755856514,-0.000357217,-0.000275181,-0.001213805
16799461.16,3.138787746,0.104589775,0.008338498,9.807192802,0.000786127,0.000865605,0.000750876
16799461.19,3.138787746,0.103349715,-0.01177399,9.780316353,-0.000313653,0.001626135,0.00056806
16799461.19,3.138787746,0.101821944,-0.000654706,9.875667572,-0.000202967,0.000481813,0.001907022
16799461.21,3.138787746,0.10153424,0.009018037,9.776832581,0.000881908,-0.000202339,0.00075425
16799461.35,3.138787746,0.101470329,-0.011816072,9.781723976,0.001165743,-0.000612824,0.000878387
16799461.35,3.138787746,0.099490181,0.017643346,9.804931641,-0.000123212,0.001250184,0.000362057
16799461.35,3.138787746,0.099490181,0.017643346,9.804931641,-0.000123212,0.001250184,0.000362057
16799461.35,3.138787746,0.096438281,0.008020696,9.901146889,-0.00112877,-0.000353399,0.000533637
16799461.35,3.138787746,0.098853044,0.648513556,9.893716812,0.000210655,-0.00039169,-0.000455759
16799461.37,3.138787746,0.066578753,0.047866292,9.40680027,-0.00073632,-0.000106789,0.001862471
16799461.4,3.138787746,0.098241352,0.030317385,9.852683067,0.001397848,-0.001892583,-0.001544091
16799461.42,3.138787746,0.098104417,0.008499888,9.779771805,-2.30E-05,1.84E-05,0.000418203
16799461.42,3.138787746,0.105114438,-0.011141549,9.809615135,-0.001771545,-0.000457278,0.000383523
16799461.47,3.138787746,0.099013522,0.018197607,9.820226669,-0.001669412,-0.000248135,-0.00146896
16799461.47,3.138787746,0.103093177,-0.020428391,9.805956841,-0.000149506,0.000193205,0.00169872
16799461.52,3.138787746,0.099289633,0.028030686,9.810792923,0.001049557,-8.46E-05,-0.000755866
16799461.54,3.138787746,0.099222094,-0.010528235,9.797154427,0.000245621,0.000976802,-0.000127096
16799461.54,3.138787746,0.100906141,0.01880485,9.823914528,0.001780808,0.0001323,0.000129802
16799461.65,3.138787746,0.097202964,0.016391268,9.783154488,0.000113521,-0.001208449,-0.000546571
16799461.65,3.138787746,0.106018893,0.009349005,9.939031601,0.000856218,6.17E-05,0.000967368
16799461.66,3.138787746,0.055369519,0.328242719,9.278930664,0.00153346,0.000187097,-0.000511149
16799461.66,3.138787746,0.100278758,-0.071815401,9.83520031,-6.94E-05,-0.000525279,-0.000388959
16799461.7,3.138787746,0.09633109,0.009664753,9.78920269,0.000457654,-0.000236004,-0.000439191
16799461.72,3.138787746,0.09985505,0.019165305,9.77394104,0.001957124,4.68E-05,-0.001121188
16799461.75,3.138787746,0.100484475,0.007790372,9.801971436,-0.00027054,0.000371075,0.001299894
16799461.75,3.138787746,0.101162128,0.019447355,9.78310585,5.13E-05,0.000448016,0.000154304
16799461.77,3.138787746,0.096979082,0.017172322,9.752210617,0.000387882,0.000270725,0.001628588
16799461.82,3.138787746,0.102879666,-0.011058712,9.84974575,-0.000322261,-0.001656382,0.000291046
16799461.82,3.138787746,0.102833346,0.009094368,9.90404892,0.002171536,0.002132527,-0.001026571
16799461.93,3.138787746,0.099597044,0.007608419,9.784231186,0.000366068,-0.000112585,0.000399309
16799461.94,3.138787746,0.103183806,-0.032242298,9.892068863,-0.002844917,-0.001029197,0.000580478
16799461.94,3.138787746,0.018183114,0.649016082,9.902122498,-0.00012859,-0.000190372,-0.000292864
16799461.94,3.138787746,0.066161841,0.167438477,9.416734695,0.000161906,-0.000889971,-0.000191827
16799461.98,3.138787746,0.099450737,0.028332779,9.867875099,0.000527799,0.001299265,0.000853532
16799462.01,3.138787746,0.102738596,0.009662221,9.76808548,0.001421175,-0.000256064,-0.001990695
16799462.03,3.138787746,0.095042795,0.019305816,9.831693649,0.002135993,-0.001349493,0.001169962
16799462.03,3.138787746,0.102691106,-0.010582627,9.802381516,-0.002043578,-9.02E-05,-0.002516561
16799462.08,3.138787746,0.100099966,0.029941963,9.785324097,0.00203673,-0.000557067,0.000790874
16799462.1,3.138787746,0.105748795,-0.020925665,9.795886993,0.001030169,-0.000622711,0.000990135
16799462.13,3.138787746,0.104051664,0.008185328,9.803877831,-0.000681777,-0.000727021,0.000841171
16799462.25,3.138787746,0.098899893,0.030935429,9.766083717,-0.001038684,0.000866955,1.05E-05
16799462.26,3.138787746,0.100679673,0.004774281,9.822366714,0.000728762,0.000784459,-2.42E-05
16799462.26,3.138787746,0.107640088,-0.008934957,9.909467697,0.000449556,0.001239891,0.001395088
16799462.26,3.138787746,0.018893676,0.650189638,9.88334465,0.00123066,0.001151439,-4.49E-05
16799462.26,3.138787746,0.078441724,0.167225018,9.303556442,0.000885811,0.001272323,9.65E-05
16799462.28,3.138787746,0.100510553,0.007983858,9.867521286,0.000652065,-0.000960406,0.000636827
16799462.35,3.138787746,0.099681057,0.020134948,9.791147232,0.001879511,0.000116643,-0.000629739
16799462.39,3.138787746,0.098988645,0.013981006,9.813667297,-0.001769601,0.001611823,-0.000192672
16799462.39,3.138787746,0.101231903,0.009201047,9.804894447,-0.000702839,-0.000507208,-0.000778919
16799462.42,3.138787746,0.102872692,-0.005346024,9.755729675,-0.000271158,0.00048351,0.000275042
16799462.59,3.138787746,0.099478282,0.009564188,9.821222305,0.001780063,0.000249791,0.001172992
16799462.6,3.138787746,0.105266824,-0.011436203,9.879617691,0.000370819,-0.000938789,-0.000434708
16799462.61,3.138787746,0.116071805,0.008558451,9.42764473,0.001401479,0.000107106,0.000732851
16799462.61,3.138787746,0.09858527,0.009779369,9.699372292,-0.002052877,0.000205115,0.000310077
16799462.67,3.138787746,0.097592488,0.034524813,9.837629318,0.000569336,0.001185846,0.000702816
16799462.7,3.138787746,0.100494944,0.005119007,9.80517292,0.000162423,-0.00121738,-0.001716242
16799462.74,3.138787746,0.097989596,0.009896296,9.747908592,-0.002663227,0.001249268,0.0005126
16799462.74,3.138787746,0.101795144,0.003575168,9.816887856,0.000392821,0.000210798,-0.000822166
16799462.9,3.138787746,0.099548712,0.012302854,9.818243027,0.000601172,-0.001231365,0.00089385
16799462.9,3.138787746,0.105574898,0.009510475,9.887421608,0.001624229,-0.001366286,-0.000553718
16799462.91,3.138787746,0.180395931,-0.630801499,9.888766289,-0.000637316,-0.001062154,0.001780247
16799462.91,3.138787746,0.109266803,-0.13426964,9.481929779,0.000350602,-0.000447294,0.001182908
16799462.94,3.138787746,0.098136082,0.013265241,9.818983078,0.000193915,-0.0014083,0.000478857
16799462.97,3.138787746,0.102380231,0.008738194,9.773982048,0.000974618,-0.000391391,-0.001188347
16799463.04,3.138787746,0.100939468,0.008140995,9.849993706,-0.000621359,0.001437623,0.001012378
16799463.04,3.138787746,0.099210255,0.008854482,9.772535324,-0.000374669,0.001858696,0.001297648
16799463.21,3.138787746,0.098651886,0.012199504,9.807260513,4.62E-05,0.001495421,0.001343073
16799463.21,3.138787746,0.10616421,0.008562258,9.891319275,-0.000228055,0.001100657,-0.000267049
16799463.22,3.138787746,0.113798141,-0.151458204,9.223601341,0.000652365,6.16E-06,-0.0002735
16799463.22,3.138787746,0.0997843,0.046749044,9.824145317,-0.001798754,-0.000778328,0.000237796
16799463.24,3.138787746,0.097389296,-0.000547722,9.782439232,0.000385531,-0.00031071,0.000877885
16799463.27,3.138787746,0.101320423,-0.001699191,9.79421711,0.001447141,0.00099799,0.000158322
16799463.49,3.138787746,0.097793393,0.014165458,9.829753876,-0.001146422,-0.001300154,0.001083572
16799463.5,3.138787746,0.099785253,0.008295847,9.794077873,0.00018062,0.000456671,-0.001198774
16799463.5,3.138787746,0.101137772,0.008306449,9.864339828,-0.000715293,-0.000363365,0.001060498
16799463.5,3.138787746,0.078199275,0.168950006,9.456324577,0.000832249,-4.59E-05,0.000519614
16799463.51,3.138787746,0.092023306,0.008213293,9.791391373,0.000269768,-0.00173688,0.000455094
16799463.53,3.138787746,0.098369494,0.014199826,9.817261696,-0.000293183,0.000242615,-0.000722623
16799463.57,3.138787746,0.100353457,0.009004848,9.793036461,-0.001082225,-0.001059329,0.000189714
16799463.61,3.138787746,0.099332199,0.019349337,9.777890205,-2.55E-05,0.00016651,0.000552283
16799463.81,3.138787746,0.098477721,0.012368155,9.813117981,8.43E-06,-0.000657448,-0.000479519
16799463.81,3.138787746,0.100581661,0.008737997,9.814819336,-0.001333999,-0.000351348,0.000244823
16799463.81,3.138787746,0.100889526,-0.001824839,9.868683815,0.000980619,-0.000408313,0.00044917
16799463.83,3.138787746,0.099396206,-0.149886727,9.684988022,0.002187385,-0.001562387,-0.000188038
16799463.83,3.138787746,0.093136743,0.087090395,9.649470329,0.001403383,0.000662822,0.00079755
16799463.86,3.138787746,0.096649304,0.013434747,9.79927063,0.000499445,-0.000566061,1.94E-05
16799463.89,3.138787746,0.10213536,0.004997108,9.793766975,-0.001397309,-0.000498267,-4.06E-05
16799464.12,3.138787746,0.102454364,-0.00224913,9.829766273,0.000645049,-0.001051419,0.000611249
16799464.12,3.138787746,0.1002298,0.008998767,9.806926727,7.44E-05,-0.001489361,-0.000223999
16799464.12,3.138787746,0.100481026,0.007704011,9.860556602,0.001423736,-0.000270081,0.000592588
16799464.12,3.138787746,0.075771004,0.170221701,9.436807632,-0.002350994,-0.000787156,-0.001370029
16799464.16,3.138787746,0.092080578,0.068477973,9.791371346,0.001977049,0.002639582,0.00054917
16799464.2,3.138787746,0.100841001,0.010578945,9.825657845,-0.000974996,0.000958666,0.001449879
16799464.23,3.138787746,0.098126821,0.007891681,9.788969994,0.001012351,0.00153738,-0.000880758
16799464.23,3.138787746,0.102104023,0.008493854,9.766949654,0.000165711,0.000794072,-0.000614199
16799464.4,3.138787746,0.100929439,0.012122063,9.819343567,-0.001170714,-0.000570986,-0.000200917
16799464.41,3.138787746,0.102596119,0.009314042,9.868065834,-0.000753163,-0.001266516,0.001096501
16799464.41,3.138787746,0.077547893,0.329820514,9.612290382,3.96E-06,0.001052093,0.00033675
16799464.42,3.138787746,0.098759934,0.000147998,9.738557816,0.000971029,0.000726677,-0.000174136
16799464.49,3.138787746,0.102129236,-0.003457724,9.770155907,0.000514927,-0.000163195,0.000803121
16799464.53,3.138787746,0.102757946,-0.00239202,9.809751511,-0.000325862,0.001159867,-0.000133701
16799464.71,3.138787746,0.102310814,0.008197604,9.828155518,0.000302677,-0.001576438,-0.00168655
16799464.71,3.138787746,0.100355625,0.008456488,9.802625656,-2.13E-05,-0.000174229,0.000765687
16799464.71,3.138787746,0.098514922,0.008406457,9.866152763,-0.001169164,0.000934884,0.000157177
16799464.71,3.138787746,0.058384165,0.16879189,9.536278725,-0.002180979,-0.000126486,0.000570973
16799464.72,3.138787746,0.083300807,0.087814629,9.672118187,-0.000365127,-0.002057951,0.000607931
16799464.74,3.138787746,0.099514753,0.008335367,9.828620911,0.000159973,-0.001023593,-0.002346825
16799464.78,3.138787746,0.100008167,0.005097177,9.802310944,-3.72E-05,0.000357846,0.001016774
16799465,3.138787746,0.096514419,0.019453399,9.809200287,-0.001418161,0.000790045,-0.000325422
16799465,3.138787746,0.100308619,0.009171591,9.80257988,-0.000626317,-0.002203388,0.000524609
16799465.01,3.138787746,0.098766454,0.008831886,9.815177917,-0.001053835,7.15E-05,-0.000300828
16799465.02,3.138787746,0.107756607,0.328434616,10.58333588,-0.00107869,0.001781725,-0.001207417
16799465.04,3.138787746,0.088606454,0.089503333,9.328720093,-0.000329968,-0.00093694,0.001775812
16799465.04,3.138787746,0.100943141,0.014674615,9.846004486,-0.001664571,0.000436037,0.001843559
16799465.12,3.138787746,0.098356977,0.020001926,9.806137085,0.000698936,-0.00098488,7.22E-05
16799465.12,3.138787746,0.099564433,0.00781998,9.786302567,-0.000748134,0.001137751,-0.000830866
16799465.31,3.138787746,0.1004389,0.007648599,9.807754517,-0.00355713,-0.000302488,-0.000398264
16799465.32,3.138787746,0.099542037,0.018706085,9.853595734,-0.001189857,-0.001080135,0.000909357
16799465.32,3.138787746,0.063489847,0.089188561,9.98281765,-0.001436556,0.000244286,-0.0002688
16799465.36,3.138787746,0.106517084,-0.020317618,9.642466545,-0.000188802,0.000315085,0.000338429
16799465.37,3.138787746,0.095707886,0.04939042,9.865301132,4.05E-05,0.000525377,0.001493342
16799465.42,3.138787746,0.094498992,0.034293056,9.710513115,-0.000270614,-0.000224263,0.000810198
16799465.42,3.138787746,0.103825077,-0.001569245,9.825860023,-0.001441695,-0.000757784,0.001953784
16799465.61,3.138787746,0.102453947,0.005581018,9.811458588,0.000449501,-0.001477116,0.001467489
16799465.61,3.138787746,0.101046912,0.026213367,9.869539261,0.000414319,-0.000501569,0.000685745
16799465.61,3.138787746,0.079489082,0.248224527,9.823344231,-0.000465755,-0.000878267,-0.001422017
16799465.62,3.138787746,0.09329094,0.048694205,9.524021149,0.000458048,0.000695014,-0.000910904
16799465.69,3.138787746,0.100799292,0.013860933,9.79329586,0.000599687,-0.001726287,-0.000629401
16799465.72,3.138787746,0.098895229,0.009375953,9.830796242,0.000268513,-0.001109464,-0.000937581
16799465.89,3.138787746,0.097607881,0.010397928,9.742527008,-0.000710777,0.000652779,1.48E-06
16799465.9,3.138787746,0.099737197,0.008686901,9.817728996,-0.001360356,0.000553047,-0.000108229
16799465.9,3.138787746,0.100218162,0.01115378,9.849462509,0.000762063,-0.00033247,-0.000828608
16799465.93,3.138787746,0.101127803,-0.031118797,9.663870811,0.000496083,0.000241285,0.001150874
16799465.93,3.138787746,0.113657519,0.009561955,10.04103279,0.000554215,0.000504531,0.000672441
16799465.94,3.138787746,0.098935448,0.007890903,9.696902275,0.001898676,0.001880897,0.00103973
16799466.03,3.138787746,0.100362025,0.014095195,9.776738167,0.000324012,0.001368693,6.28E-05
16799466.03,3.138787746,0.100970648,0.009725716,9.814432144,0.001391443,-0.001799259,-0.000165897
16799466.21,3.138787746,0.09947025,0.005984298,9.800348282,5.97E-05,-0.000965014,-0.00040383
16799466.21,3.138787746,0.100699127,0.009873083,9.862872124,0.001449408,-0.001114414,-0.000298634
16799466.22,3.138787746,0.097957812,0.048265569,9.665567398,-0.001667961,0.000913287,0.000265714
16799466.26,3.138787746,0.095452875,0.027581621,9.72858429,-0.000828525,0.001460316,-0.000754883
16799466.3,3.138787746,0.100168422,0.000281086,9.80844593,-0.000433682,-0.001722551,-0.001250928
16799466.3,3.138787746,0.099601507,0.010014014,9.800913811,-0.00070349,0.000516762,-2.52E-05
16799466.34,3.138787746,0.101212092,0.012741719,9.805591583,-6.98E-05,-0.00032301,-0.000626782
16799466.52,3.138787746,0.100369699,0.0096213,9.811542511,-0.001553172,0.000939883,-0.000808401
16799466.52,3.138787746,0.104986221,-0.010540347,9.870394707,0.000945683,-0.000144397,-0.000341186
16799466.53,3.138787746,0.112238713,0.007776588,9.225828171,-0.001554044,0.000533122,0.000663895
16799466.53,3.138787746,0.099715345,0.009376966,9.885307312,-0.000310072,-0.000335474,0.001089062
16799466.59,3.138787746,0.099981628,-0.001674423,9.770558357,-0.000632111,0.001625162,0.00162402
16799466.59,3.138787746,0.103480108,-0.010690082,9.87254715,-0.000197246,-0.000420578,-0.000561847
16799466.8,3.138787746,0.10033115,-0.013057352,9.776363373,0.000747305,0.000452333,0.000668788
16799466.8,3.138787746,0.099361449,0.008600589,9.792666435,-0.001023173,-0.000191384,0.000267414
16799466.8,3.138787746,0.098581515,0.019137938,9.824233055,3.00E-05,-0.000325555,-0.000849682
16799466.81,3.138787746,0.065488502,0.327941954,10.54485226,-0.001429197,0.001355786,-0.000548597
16799466.84,3.138787746,0.13287586,-0.052287426,9.597249031,0.001350437,0.001789154,0.000239208
16799466.88,3.138787746,0.100583829,0.008758809,9.755640984,-0.001940734,0.002008206,0.000487645
16799466.88,3.138787746,0.097218379,0.028879352,9.814883232,0.001079269,-0.000444065,-0.001330517
16799466.91,3.138787746,0.098960303,0.01379802,9.770903587,0.001095734,0.000132989,-0.00127471
16799467.1,3.138787746,0.097575031,0.005260673,9.820141792,0.001379982,-0.000280298,0.002255646
16799467.11,3.138787746,0.097698852,0.006375182,9.864721298,0.000863751,-4.32E-05,-0.00141145
16799467.11,3.138787746,0.094751209,0.008530459,9.353554726,0.000538406,0.000337662,-0.000820995
16799467.11,3.138787746,0.096059181,0.008979237,9.853675842,-0.000324815,-0.002324396,0.000572373
16799467.13,3.138787746,0.101767227,0.005050558,9.780310631,-0.000362115,0.000248654,0.000521882
16799467.21,3.138787746,0.100798883,0.01475754,9.852664948,-0.001218966,0.001676792,7.40E-05
16799467.38,3.138787746,0.098343693,0.01837988,9.729288101,0.000517991,-0.001299297,-0.001001456
16799467.39,3.138787746,0.099375159,0.007508333,9.818732262,0.00089406,-0.000273299,-0.001626191
16799467.39,3.138787746,0.100812279,0.008010383,9.890005112,-0.000958618,0.002290831,-0.001224367
16799467.39,3.138787746,0.128605798,-0.080765218,9.627820969,6.61E-05,-0.001380265,0.001065714
16799467.42,3.138787746,0.102655746,0.020012558,9.793016434,0.001232374,-0.002044214,0.001017504
16799467.46,3.138787746,0.104058921,-0.011258183,9.685480118,-0.00013761,-0.001028322,-0.000910121
16799467.5,3.138787746,0.10100808,-0.01068337,9.819464684,-0.000266005,-0.000309996,3.01E-05
16799467.66,3.138787746,0.10086666,0.011448825,9.826361656,-0.00033457,0.001352726,8.20E-05
16799467.67,3.138787746,0.100091971,0.008589977,9.797154427,3.92E-05,0.000407095,-0.000215829
16799467.67,3.138787746,0.099971384,0.027925476,9.89755249,0.000618118,-0.002531372,0.001317123
16799467.67,3.138787746,0.101048037,0.009209719,9.899435043,0.000968881,-0.000755628,0.000420084
16799467.67,3.138787746,0.081755288,0.170355603,9.565629959,-0.000883185,0.000348089,-4.58E-05
16799467.69,3.138787746,0.103257641,-0.000372414,9.747469902,0.000286132,-0.001081701,-0.00059666
16799467.73,3.138787746,0.098716833,0.029150816,9.805519104,-0.001017375,-0.000248514,-0.000193644
16799467.76,3.138787746,0.098413303,0.005917486,9.769572258,-0.000814685,0.000993854,-0.000804068
16799467.79,3.138787746,0.101784214,0.002871693,9.848065376,-0.000402418,0.000988176,0.00115809
16799467.82,3.138787746,0.097744502,0.016716851,9.761921883,-0.001530538,0.000933686,-0.000311567
16799467.98,3.138787746,0.099232934,0.008760678,9.819191933,-0.000476121,0.000713591,-0.001264627
16799467.99,3.138787746,0.099897549,0.010099166,9.890313148,0.002423905,0.000232317,-0.000107826
16799468,3.138787746,0.086810634,0.129215851,9.629644394,0.000714755,-0.000540363,-0.000455926
16799468.02,3.138787746,0.108031236,-0.070890188,9.662229538,-0.000200891,0.00013036,0.000464341
16799468.06,3.138787746,0.103128001,0.00395496,9.800153732,0.001229462,0.000281322,0.001800267
16799468.09,3.138787746,0.101174876,0.004371104,9.777060509,0.001587941,-6.72E-05,0.000231558
16799468.11,3.138787746,0.104195073,0.009547022,9.925580025,7.91E-05,-0.001764017,0.000583247
16799468.11,3.138787746,0.099792451,0.00289113,9.697262764,-0.000173646,0.001082243,-0.001064956
16799468.27,3.138787746,0.101600811,0.002530294,9.817635536,0.001263762,0.000151977,0.001497984
16799468.27,3.138787746,0.103142217,0.008657896,9.84492588,0.001409329,-0.001386085,-0.0004467
16799468.28,3.138787746,0.121251971,0.010843495,10.00955963,-0.001129837,-0.000997088,0.000284853
16799468.3,3.138787746,0.099459894,-0.030739795,9.742824554,0.000166088,-0.001001966,-0.000392437
16799468.34,3.138787746,0.097583279,0.018754885,9.736418724,0.000330545,0.000187993,0.000425785
16799468.36,3.138787746,0.095182277,0.017618749,9.793102264,0.001048798,-0.000376345,0.000676568
16799468.36,3.138787746,0.102913089,0.013809582,9.764600754,-0.000146773,-0.000704026,-0.001235864
16799468.44,3.138787746,0.100280695,0.002583396,9.853813171,-0.000375955,-8.47E-05,0.000396574
16799468.44,3.138787746,0.096896172,0.008236163,9.803824425,0.000799021,0.001297701,-0.001070896
16799468.59,3.138787746,0.101474255,0.005853852,9.803610802,-0.00102082,0.001097155,-0.001164549
16799468.59,3.138787746,0.106674343,-0.012411126,9.895167351,-0.000816566,0.000165452,0.00127946
16799468.59,3.138787746,0.01808255,0.650043845,9.979100227,0.000980806,-0.00038872,1.33E-06
16799468.59,3.138787746,0.091216408,0.009194651,9.504630089,0.0002902,-0.000119603,-0.000124418
16799468.65,3.138787746,0.096094593,0.018781813,9.786503792,-0.000525079,-0.000781812,-0.000437261
16799468.68,3.138787746,0.09933544,-0.000902289,9.797290802,0.000601443,0.000205198,-0.002407642
16799468.68,3.138787746,0.098681547,0.008909929,9.78275013,-0.000511375,0.001832116,-0.000136085
16799468.71,3.138787746,0.1024165,-0.001875426,9.840362549,-0.000623237,0.00058086,0.000746296
16799468.86,3.138787746,0.097923093,0.008397732,9.786725998,0.001081493,0.000198044,0.000478162
16799468.86,3.138787746,0.101483531,0.009774776,9.906604767,2.26E-05,0.001561923,0.000916834
16799468.87,3.138787746,0.261379153,0.007617497,9.895154953,1.68E-05,0.00195102,-6.85E-05
16799468.87,3.138787746,0.09348572,0.208754867,9.39262104,-0.000472644,0.000860344,0.001401745
16799468.91,3.138787746,0.098604329,0.007666612,9.834430695,7.51E-05,-6.32E-05,0.000746786
16799468.96,3.138787746,0.100254647,0.010470822,9.754010201,-0.000943898,0.000589839,0.000636217
16799468.96,3.138787746,0.103095524,-0.001021713,9.850529671,-0.000725852,0.00189868,-0.00010951
16799469.02,3.138787746,0.101778977,-0.00149943,9.789089203,-0.001123184,-2.55E-05,-0.000998307
16799469.17,3.138787746,0.100415178,0.009107796,9.816178322,0.000886609,-0.00041911,0.001825107
16799469.18,3.138787746,0.099575371,0.010725036,9.790282249,-0.000158689,-0.000890326,-0.000929044
16799469.18,3.138787746,0.102054939,0.008551495,9.894309044,0.000738471,-0.001706946,0.001139454
16799469.18,3.138787746,-0.058950134,0.007341677,9.971849442,-1.75E-05,0.001294259,0.00127634
16799469.18,3.138787746,0.104336165,0.008022702,9.274288177,0.000453693,-0.000228888,0.001840645
16799469.24,3.138787746,0.102796726,-0.010618246,9.839406013,0.001287904,-0.000234484,0.00078899
16799469.24,3.138787746,0.102381937,0.004651994,9.845380783,-0.000483831,0.000459413,-0.001382436
16799469.3,3.138787746,0.101860948,-0.010888813,9.802477837,0.001018288,0.001213955,-0.000431
16799469.3,3.138787746,0.102180667,0.003524289,9.738685608,0.000426141,-0.000542104,-0.000343332
16799469.47,3.138787746,0.101112463,0.007493268,9.818500519,-0.000542013,3.14E-05,-0.00032906
16799469.49,3.138787746,0.096994333,0.023015786,9.853376389,-0.000317077,-0.001194268,0.001270069
16799469.49,3.138787746,0.143604472,-0.152562648,10.06659031,-0.000777091,0.000198726,-0.002318888
16799469.5,3.138787746,0.107748337,-0.151482806,9.545574188,-0.000740253,0.001329644,-0.000543118
16799469.54,3.138787746,0.0979876,0.00829424,9.682879448,-0.000858736,-0.000497264,-0.000472668
16799469.57,3.138787746,0.102552362,0.008850493,9.788187981,0.00050955,-0.001361552,-0.001258236
16799469.61,3.138787746,0.104703911,0.014452915,9.816603661,-0.000260117,-0.000639224,0.00010414
16799469.64,3.138787746,0.099205308,0.009065548,9.870018005,-0.001052177,7.48E-05,0.001423044
16799469.64,3.138787746,0.096320458,0.009489558,9.745178223,-5.50E-06,0.000555911,-0.000298862
